"Time (s)","Linear Acceleration x (m/s^2)","Linear Acceleration y (m/s^2)","Linear Acceleration z (m/s^2)"
1.104077990E-1,-3.370000124E-1,-4.100000113E-2,-2.409999967E-1
1.153699480E-1,2.680000067E-1,-2.669999897E-1,-1.029999971E0
1.203321780E-1,2.269999981E-1,-1.979999989E-1,-7.779999971E-1
1.252943320E-1,2.290000021E-1,-1.850000024E-1,-6.380000114E-1
1.302567030E-1,2.419999987E-1,-2.039999962E-1,-6.480000019E-1
1.352189340E-1,5.419999957E-1,-4.099999964E-1,-1.302999973E0
1.401810880E-1,5.889999866E-1,-3.980000019E-1,-1.320999980E0
1.451434910E-1,8.410000205E-1,-5.440000296E-1,-1.682000041E0
1.501054140E-1,8.579999804E-1,-5.970000029E-1,-1.618999958E0
1.550677950E-1,9.710000157E-1,-7.020000219E-1,-1.745000005E0
1.600300260E-1,9.580000043E-1,-7.549999952E-1,-1.715999961E0
1.649921800E-1,9.129999876E-1,-7.630000114E-1,-1.695999980E0
1.699545540E-1,5.830000043E-1,-4.860000014E-1,-1.116000056E0
1.749167850E-1,8.999999762E-1,-3.580000103E-1,-8.949999809E-1
1.798789390E-1,1.016000032E0,-7.080000043E-1,-6.290000081E-1
1.848410930E-1,1.442999959E0,-7.500000000E-1,-7.739999890E-1
1.898034770E-1,2.917000055E0,-9.350000024E-1,-1.589999944E-1
1.947657080E-1,3.249000072E0,-1.378999949E0,1.353000045E0
1.997278620E-1,3.463000059E0,-1.233000040E0,1.457000017E0
2.046900160E-1,3.413000107E0,-1.243999958E0,1.898000002E0
2.096521560E-1,3.374000072E0,-1.144999981E0,2.200000048E0
2.146145400E-1,3.210999966E0,-9.470000267E-1,2.786000013E0
2.195767710E-1,3.221999884E0,-7.369999886E-1,3.138999939E0
2.245389060E-1,3.378999949E0,-7.319999933E-1,3.026999950E0
2.295010600E-1,3.490000010E0,-7.990000248E-1,3.076999903E0
2.344635250E-1,3.417000055E0,-9.350000024E-1,3.030999899E0
2.394256790E-1,1.059000015E0,-8.849999905E-1,3.608000040E0
2.443878330E-1,1.319000006E0,-6.710000038E-1,3.365999937E0
2.493502250E-1,1.672000051E0,-3.389999866E-1,3.105999947E0
2.543123790E-1,1.904999971E0,-3.499999940E-1,3.111999989E0
2.592746090E-1,2.167000055E0,-5.569999814E-1,2.966000080E0
2.642370000E-1,2.278000116E0,-7.950000167E-1,2.842999935E0
2.691989230E-1,1.968000054E0,-1.215999961E0,2.545000076E0
2.741613010E-1,1.784999967E0,-1.615000010E0,2.305000067E0
2.791235310E-1,1.534000039E0,-2.022000074E0,2.174000025E0
2.840856850E-1,1.356999993E0,-2.503000021E0,1.990000010E0
2.890480680E-1,1.065000057E0,-2.733999968E0,1.985999942E0
2.940102220E-1,6.209999919E-1,-3.559999943E0,2.548000097E0
2.989723760E-1,9.899999946E-2,-3.891999960E0,3.990000010E0
3.039345960E-1,5.509999990E-1,-3.650000095E0,4.096000195E0
3.088969810E-1,1.077999949E0,-3.585999966E0,4.050000191E0
3.138591150E-1,1.376000047E0,-3.698999882E0,4.096000195E0
3.188213460E-1,1.386000037E0,-3.621999979E0,4.257999897E0
3.237837300E-1,1.394000053E0,-3.615000010E0,4.291999817E0
3.287458650E-1,1.475999951E0,-3.401999950E0,4.175000191E0
3.337080190E-1,1.891999960E0,-3.421999931E0,3.950000048E0
3.386702500E-1,2.321000099E0,-3.519000053E0,3.578999996E0
3.436323850E-1,2.760999918E0,-3.627000093E0,3.700999975E0
3.485947690E-1,2.901000023E0,-3.836999893E0,3.677000046E0
3.535569570E-1,3.190000057E0,-4.040999889E0,3.464999914E0
3.585191110E-1,3.344000101E0,-4.206999779E0,3.148999929E0
3.634812650E-1,3.663000107E0,-4.581999779E0,3.026999950E0
3.684436680E-1,3.823999882E0,-4.848000050E0,2.460999966E0
3.734058220E-1,3.839999914E0,-5.156000137E0,2.062999964E0
3.783680530E-1,4.013999939E0,-5.008999825E0,1.848000050E0
3.833304480E-1,4.348000050E0,-4.603000164E0,1.842000008E0
3.882926020E-1,4.561999798E0,-4.202000141E0,1.720000029E0
3.932548460E-1,4.604000092E0,-3.809999943E0,1.060999990E0
3.982170000E-1,4.111999989E0,-3.204999924E0,7.189999819E-1
4.031791540E-1,3.539000034E0,-2.556999922E0,3.089999855E-1
4.081415290E-1,2.786999941E0,-2.026000023E0,-1.299999952E-1
4.131036830E-1,2.233999968E0,-1.491999984E0,-8.029999733E-1
4.180658360E-1,1.879999995E0,-1.304000020E0,-1.386000037E0
4.230283130E-1,1.738000035E0,-1.273000002E0,-1.577999949E0
4.279904670E-1,1.616999984E0,-1.317000031E0,-1.218000054E0
4.329526160E-1,1.307999969E0,-1.394999981E0,-5.490000248E-1
4.379148460E-1,1.251999974E0,-1.713000059E0,1.809999943E-1
4.428770000E-1,1.106999993E0,-1.865000010E0,9.909999967E-1
4.478393850E-1,1.246000051E0,-2.108999968E0,1.677000046E0
4.528015390E-1,1.258999944E0,-2.039999962E0,2.266999960E0
4.577637700E-1,1.587000012E0,-1.968000054E0,2.434999943E0
4.627259230E-1,1.980000019E0,-2.154999971E0,2.398000002E0
4.676883080E-1,2.045000076E0,-2.232000113E0,2.687999964E0
4.726505340E-1,2.088000059E0,-2.367000103E0,3.289999962E0
4.776126880E-1,2.219000101E0,-2.710000038E0,3.688999891E0
4.825748420E-1,2.456000090E0,-3.223999977E0,4.008999825E0
4.875369950E-1,3.023000002E0,-3.907000065E0,4.334000111E0
4.924993800E-1,3.684999943E0,-4.297999859E0,4.065000057E0
4.974616110E-1,2.934999943E0,-3.957000017E0,1.472000003E0
5.024237650E-1,3.129999936E-1,-4.499000072E0,1.315000057E0
5.073859190E-1,-6.499999762E-2,-3.552000046E0,2.336999893E0
5.123483130E-1,4.839999974E-1,-3.773999929E0,4.364999771E0
5.173105440E-1,4.920000136E-1,-4.960000038E0,4.257999897E0
5.222726980E-1,-1.190000027E-1,-5.443999767E0,3.464999914E0
5.272350960E-1,-9.599999785E-1,-4.934000015E0,2.244999886E0
5.321972500E-1,-1.547000051E0,-4.395999908E0,1.098000050E0
5.371594040E-1,-1.416000009E0,-3.950999975E0,6.069999933E-1
5.421216350E-1,7.800000161E-2,-3.407000065E0,1.763000011E0
5.470837890E-1,2.023000002E0,-2.845000029E0,3.243999958E0
5.520461920E-1,3.025000095E0,-2.690999985E0,3.937999964E0
5.570084230E-1,3.520999908E0,-2.878000021E0,3.710000038E0
5.619705000E-1,3.198999882E0,-2.522000074E0,3.242000103E0
5.669327360E-1,2.650000095E0,-2.234999895E0,2.628000021E0
5.718951210E-1,1.914000034E0,-2.305000067E0,1.636000037E0
5.768572740E-1,1.718999982E0,-2.306999922E0,8.619999886E-1
5.818195000E-1,1.315000057E0,-2.516000032E0,3.400000185E-2
5.867818850E-1,9.269999862E-1,-2.535000086E0,-4.269999862E-1
5.917440150E-1,6.250000000E-1,-2.474999905E0,-9.179999828E-1
5.967061690E-1,6.639999747E-1,-2.321000099E0,-1.100000024E0
6.016683990E-1,8.980000019E-1,-2.167999983E0,-1.052000046E0
6.066305340E-1,1.424000025E0,-2.055000067E0,-9.800000191E-1
6.115929190E-1,2.259000063E0,-1.899999976E0,9.799999744E-2
6.165550820E-1,3.108999968E0,-1.743000031E0,1.366000056E0
6.215172360E-1,3.486000061E0,-1.682000041E0,1.899999976E0
6.264794660E-1,3.907999992E0,-1.634999990E0,1.851999998E0
6.314418510E-1,3.982000113E0,-1.657999992E0,1.712000012E0
6.364040050E-1,4.196000099E0,-1.748000026E0,1.274999976E0
6.413661590E-1,6.443999767E0,-1.689000010E0,1.016999960E0
6.463283890E-1,6.118000031E0,-1.817999959E0,1.343000054E0
6.512907740E-1,5.614999771E0,-1.807999969E0,1.641999960E0
6.562529280E-1,5.605000019E0,-1.904000044E0,1.748999953E0
6.612151450E-1,5.534999847E0,-2.013000011E0,1.669999957E0
6.661772990E-1,5.255000114E0,-2.187999964E0,1.279999971E0
6.711394570E-1,4.953000069E0,-2.322000027E0,7.839999795E-1
6.761018420E-1,4.258999825E0,-2.440000057E0,3.980000019E-1
6.810639960E-1,3.769000053E0,-2.338000059E0,-5.499999970E-2
6.860262170E-1,3.204999924E0,-2.466000080E0,-4.990000129E-1
6.909886010E-1,2.362999916E0,-2.403000116E0,-8.500000238E-1
6.959505380E-1,1.514999986E0,-2.434000015E0,-9.319999814E-1
7.009129230E-1,7.250000238E-1,-2.395999908E0,-8.970000148E-1
7.058751700E-1,-6.019999981E-1,-2.344000101E0,-7.580000162E-1
7.108373240E-1,-2.183000088E0,-2.303999901E0,-5.000000000E-1
7.157997080E-1,-3.141999960E0,-2.155999899E0,-5.709999800E-1
7.207619390E-1,-3.684999943E0,-1.927999973E0,-4.810000062E-1
7.257240930E-1,-3.319000006E0,-1.782999992E0,-5.690000057E-1
7.306862610E-1,-2.290999889E0,-2.170000076E0,-7.950000167E-1
7.356486450E-1,-7.779999971E-1,-2.598999977E0,-8.870000243E-1
7.406107990E-1,1.093999982E0,-2.727999926E0,-7.789999843E-1
7.455730590E-1,1.912999988E0,-2.964999914E0,-7.710000277E-1
7.505352130E-1,2.115000010E0,-2.450000048E0,-8.360000253E-1
7.554973670E-1,2.026000023E0,-2.164000034E0,-4.009999931E-1
7.604597600E-1,1.975000024E0,-1.944000006E0,-1.330000013E-1
7.654219910E-1,2.138999939E0,-2.131000042E0,-1.800000072E-1
7.703841360E-1,2.302000046E0,-2.085999966E0,-1.889999956E-1
7.753465210E-1,2.282999992E0,-2.148000002E0,7.100000232E-2
7.803086750E-1,2.289000034E0,-2.059000015E0,3.289999962E-1
7.852708180E-1,2.470000029E0,-2.118000031E0,9.390000105E-1
7.902330490E-1,4.407999992E0,-1.074000001E0,5.279999971E-1
7.951954340E-1,3.361000061E0,-2.275000095E0,1.980000019E0
8.001575930E-1,2.970999956E0,-2.657999992E0,1.131000042E0
8.051197460E-1,2.431999922E0,-2.645999908E0,1.549999952E0
8.100819190E-1,2.209000111E0,-2.605000019E0,1.697000027E0
8.150441500E-1,2.003000021E0,-2.551000118E0,1.751000047E0
8.200065350E-1,2.049999952E0,-2.305999994E0,1.603999972E0
8.249686940E-1,2.276999950E0,-2.128999949E0,1.294999957E0
8.299308470E-1,2.275000095E0,-2.006000042E0,9.739999771E-1
8.348930780E-1,2.328999996E0,-2.099999905E0,9.929999709E-1
8.398554720E-1,2.302000046E0,-2.220000029E0,6.439999938E-1
8.448176260E-1,2.071000099E0,-2.269999981E0,4.429999888E-1
8.497798670E-1,1.866999984E0,-2.141000032E0,4.729999900E-1
8.547420200E-1,1.677000046E0,-2.092000008E0,2.689999938E-1
8.597041740E-1,1.552999973E0,-2.013999939E0,5.000000075E-2
8.646665590E-1,1.495000005E0,-1.975000024E0,-3.880000114E-1
8.696287900E-1,1.404999971E0,-2.098999977E0,-3.260000050E-1
8.745908470E-1,1.350999951E0,-2.154000044E0,-5.939999819E-1
8.795530770E-1,1.320000052E0,-2.098000050E0,-3.070000112E-1
8.845152310E-1,1.421000004E0,-1.917000055E0,5.700000003E-2
8.894776260E-1,1.659000039E0,-1.733999968E0,6.809999943E-1
8.944398570E-1,2.239000082E0,-1.876000047E0,1.154000044E0
8.994020100E-1,3.015000105E0,-2.003999949E0,1.779000044E0
9.043641400E-1,3.372999907E0,-2.022000074E0,2.569000006E0
9.093265250E-1,3.614000082E0,-1.957999945E0,3.293999910E0
9.142886790E-1,3.602999926E0,-1.909999967E0,3.858999968E0
9.192508950E-1,3.668999910E0,-2.028000116E0,4.022999763E0
9.242132790E-1,3.441999912E0,-2.137000084E0,3.986999989E0
9.291754330E-1,2.892999887E0,-2.112999916E0,3.861999989E0
9.341376060E-1,2.456000090E0,-2.270999908E0,3.686000109E0
9.390998370E-1,2.046999931E0,-2.365999937E0,3.500999928E0
9.440619140E-1,1.501999974E0,-2.533999920E0,3.086999893E0
9.490241290E-1,1.213000059E0,-2.596999884E0,2.770999908E0
9.539865140E-1,8.399999738E-1,-2.691999912E0,2.348999977E0
9.589486680E-1,8.180000186E-1,-2.709000111E0,1.886000037E0
9.639108900E-1,9.950000048E-1,-2.619999886E0,1.547000051E0
9.688732740E-1,1.304999948E0,-2.615999937E0,1.384999990E0
9.738352010E-1,1.460999966E0,-2.516999960E0,1.276999950E0
9.787975860E-1,1.682000041E0,-2.309999943E0,1.195999980E0
9.837598170E-1,2.009999990E0,-2.062999964E0,1.087000012E0
9.887219910E-1,2.418999910E0,-2.019999981E0,1.139999986E0
9.936843750E-1,2.446000099E0,-2.003999949E0,9.900000095E-1
9.986466060E-1,2.473999977E0,-1.945999980E0,1.001999974E0
1.003608712E0,2.556999922E0,-1.873000026E0,7.960000038E-1
1.008570943E0,2.369999886E0,-1.838000059E0,8.209999800E-1
1.013533327E0,2.415999889E0,-1.802999973E0,7.360000014E-1
1.018495251E0,2.312999964E0,-1.819000006E0,7.730000019E-1
1.023457635E0,2.144000053E0,-1.860000014E0,7.269999981E-1
1.028419842E0,1.975999951E0,-1.952999949E0,8.980000019E-1
1.033381996E0,1.865000010E0,-2.030999899E0,1.000000000E0
1.038344380E0,1.850000024E0,-2.065999985E0,1.059999943E0
1.043306529E0,1.945000052E0,-2.059000015E0,1.241999984E0
1.048268683E0,2.015000105E0,-2.078000069E0,1.615000010E0
1.053230894E0,1.990000010E0,-2.082999945E0,1.904999971E0
1.058193279E0,2.088000059E0,-2.073999882E0,1.868999958E0
1.063155432E0,2.091000080E0,-2.038000107E0,2.010999918E0
1.068117582E0,2.094000101E0,-2.003000021E0,1.881000042E0
1.073079813E0,2.013999939E0,-2.065000057E0,1.873999953E0
1.078041967E0,1.960000038E0,-2.019999981E0,1.703999996E0
1.083004371E0,1.904999971E0,-2.043999910E0,1.549000025E0
1.087966524E0,1.888000011E0,-2.082000017E0,1.434000015E0
1.092928707E0,2.006000042E0,-2.053999901E0,1.427999973E0
1.097890938E0,2.082000017E0,-1.889999986E0,1.246000051E0
1.102853323E0,2.197000027E0,-1.850000024E0,1.090999961E0
1.107815491E0,2.190000057E0,-1.756000042E0,9.359999895E-1
1.112777721E0,2.332000017E0,-1.715000033E0,7.940000296E-1
1.117739875E0,2.132999897E0,-1.659999967E0,7.599999905E-1
1.122702024E0,2.272000074E0,-1.631999969E0,9.840000272E-1
1.127664178E0,2.440999985E0,-1.738999963E0,5.550000072E-1
1.132626578E0,2.325999975E0,-1.761999965E0,4.099999964E-1
1.137588808E0,2.144000053E0,-1.782999992E0,5.239999890E-1
1.142550962E0,2.209000111E0,-1.720999956E0,6.359999776E-1
1.147513136E0,2.082999945E0,-1.848000050E0,6.380000114E-1
1.152475521E0,2.012000084E0,-1.838000059E0,9.259999990E-1
1.157437674E0,2.009999990E0,-1.840000033E0,1.116999984E0
1.162399842E0,1.952000022E0,-1.817000031E0,1.031000018E0
1.167362073E0,1.500000060E-1,-3.670000136E-1,-3.429999948E-1
1.172324434E0,2.199999988E-2,-2.349999994E-1,-4.250000119E-1
1.177286588E0,-8.999999613E-3,-1.539999992E-1,-4.659999907E-1
1.182248818E0,-1.759999990E-1,-2.700000107E-1,-2.910000086E-1
1.187210967E0,-1.400000006E-1,-2.860000134E-1,-1.949999928E-1
1.192173352E0,-2.700000107E-1,-4.250000119E-1,-8.500000089E-2
1.197135506E0,-3.600000143E-1,-4.569999874E-1,-9.799999744E-2
1.202097670E0,-3.319999874E-1,-3.720000088E-1,-8.999999613E-3
1.207059823E0,-1.630000025E-1,-2.669999897E-1,-2.529999912E-1
1.212022006E0,1.600000076E-2,-1.230000034E-1,-3.190000057E-1
1.216984391E0,2.509999871E-1,-1.159999967E-1,-4.259999990E-1
1.221946314E0,3.289999962E-1,-5.400000140E-2,-5.299999714E-1
1.226908699E0,3.190000057E-1,-4.600000009E-2,-5.820000172E-1
1.231870929E0,3.389999866E-1,7.299999893E-2,-6.359999776E-1
1.236833083E0,3.070000112E-1,-3.700000048E-2,-5.950000286E-1
1.241795492E0,1.570000052E-1,-8.600000292E-2,-4.289999902E-1
1.246757723E0,-7.800000161E-2,-2.070000023E-1,-3.210000098E-1
1.251719847E0,-3.260000050E-1,-1.770000011E-1,-1.459999979E-1
1.256682001E0,-4.239999950E-1,-3.910000026E-1,1.640000045E-1
1.261644386E0,-4.869999886E-1,-3.840000033E-1,2.060000002E-1
1.266606559E0,-5.400000215E-1,-4.440000057E-1,2.150000036E-1
1.271568713E0,-5.809999704E-1,-5.070000291E-1,4.440000057E-1
1.276530943E0,-5.009999871E-1,-4.880000055E-1,4.140000045E-1
1.281493106E0,-3.170000017E-1,-4.880000055E-1,2.739999890E-1
1.286455260E0,-3.709999919E-1,-4.939999878E-1,3.519999981E-1
1.291417636E0,-4.539999962E-1,-3.260000050E-1,3.359999955E-1
1.296379790E0,-1.570000052E-1,-4.180000126E-1,4.429999888E-1
1.301341910E0,-1.010000035E-1,-2.910000086E-1,4.560000002E-1
1.306304371E0,4.000000190E-3,-3.000000119E-1,5.210000277E-1
1.311266525E0,-1.469999999E-1,-2.700000107E-1,5.059999824E-1
1.316228660E0,-4.100000113E-2,-1.190000027E-1,3.280000091E-1
1.321190891E0,4.500000179E-2,-1.030000001E-1,3.740000129E-1
1.326153044E0,6.800000370E-2,-1.999999955E-2,3.459999859E-1
1.331115183E0,-7.199999690E-2,-7.000000216E-3,4.269999862E-1
1.336077568E0,-8.000000380E-3,-4.899999872E-2,4.140000045E-1
1.341039722E0,-1.920000017E-1,-1.280000061E-1,3.930000067E-1
1.346001938E0,-3.330000043E-1,-1.959999949E-1,3.519999981E-1
1.350964091E0,-4.740000069E-1,-2.399999946E-1,3.389999866E-1
1.355926245E0,-5.600000024E-1,-2.829999924E-1,1.490000039E-1
1.360888591E0,-4.539999962E-1,-2.610000074E-1,3.190000057E-1
1.365850745E0,-4.990000129E-1,-2.060000002E-1,3.319999874E-1
1.370812885E0,-4.250000119E-1,-4.259999990E-1,5.899999738E-1
1.375775115E0,-4.620000124E-1,-2.370000035E-1,7.129999995E-1
1.380737500E0,-2.549999952E-1,-2.669999897E-1,1.230000019E0
1.385699659E0,-2.199999988E-2,-4.889999926E-1,1.218000054E0
1.390661813E0,1.159999967E-1,-4.420000017E-1,1.138000011E0
1.395624044E0,6.599999964E-2,-2.739999890E-1,1.167999983E0
1.400586168E0,8.799999952E-2,-1.679999977E-1,1.046000004E0
1.405548553E0,1.879999936E-1,-6.800000370E-2,9.129999876E-1
1.410510784E0,3.310000002E-1,-1.360000074E-1,7.559999824E-1
1.415472861E0,3.790000081E-1,-2.899999917E-2,5.849999785E-1
1.420435091E0,5.400000215E-1,9.000000358E-2,2.479999959E-1
1.425397240E0,1.333999991E0,-5.249999762E-1,-9.150000215E-1
1.430359394E0,4.440000057E-1,6.150000095E-1,1.539999992E-1
1.435321779E0,4.500000179E-2,7.609999776E-1,9.399999678E-2
1.440284015E0,3.089999855E-1,3.249999881E-1,-2.010000050E-1
1.445246168E0,4.169999957E-1,8.699999750E-2,-5.320000052E-1
1.450208539E0,3.499999940E-1,1.529999971E-1,-7.689999938E-1
1.455170770E0,4.189999998E-1,6.899999827E-2,-9.789999723E-1
1.460132847E0,-3.560000062E-1,2.599999905E-1,-7.139999866E-1
1.465095078E0,-5.749999881E-1,9.899999946E-2,-5.450000167E-1
1.470057462E0,-7.129999995E-1,-1.280000061E-1,-5.260000229E-1
1.475019616E0,-7.429999709E-1,-2.189999968E-1,-4.539999962E-1
1.479981774E0,-5.019999743E-1,-2.240000069E-1,-4.210000038E-1
1.484943928E0,-4.600000083E-1,-4.070000052E-1,-2.269999981E-1
1.489906150E0,-6.520000100E-1,-4.659999907E-1,-1.430000067E-1
1.494868534E0,-5.299999714E-1,-3.759999871E-1,-1.000000015E-1
1.499830457E0,-5.199999809E-1,-3.569999933E-1,2.999999933E-2
1.504792851E0,-1.480000019E-1,-2.500000000E-1,-8.999999613E-3
1.509755082E0,4.199999943E-2,-2.010000050E-1,-8.799999952E-2
1.514717236E0,2.339999974E-1,-1.650000066E-1,-7.199999690E-2
1.519679399E0,3.720000088E-1,1.300000027E-2,-1.360000074E-1
1.524641784E0,5.070000291E-1,6.100000069E-2,-2.010000050E-1
1.529604020E0,6.169999838E-1,1.630000025E-1,-2.930000126E-1
1.534566097E0,6.320000291E-1,2.249999940E-1,-4.799999893E-1
1.539528328E0,5.389999747E-1,1.780000031E-1,-5.720000267E-1
1.544490495E0,3.639999926E-1,1.850000024E-1,-6.100000143E-1
1.549452880E0,2.020000070E-1,2.070000023E-1,-7.570000291E-1
1.554415111E0,6.800000370E-2,7.900000364E-2,-9.169999957E-1
1.559377275E0,-9.399999678E-2,4.800000042E-2,-1.024000049E0
1.564339429E0,-2.849999964E-1,-2.300000004E-2,-1.008999944E0
1.569301813E0,-3.680000007E-1,-2.400000021E-2,-9.539999962E-1
1.574263958E0,-3.989999890E-1,-1.199999973E-1,-8.309999704E-1
1.579226112E0,-3.219999969E-1,1.499999966E-2,-8.180000186E-1
1.584188343E0,-2.870000005E-1,-1.459999979E-1,-6.430000067E-1
1.589150727E0,-1.439999938E-1,-1.030000001E-1,-4.539999962E-1
1.594112881E0,-5.499999970E-2,-7.299999893E-2,-3.059999943E-1
1.599075035E0,9.700000286E-2,-1.759999990E-1,-2.549999952E-1
1.604037189E0,5.000000075E-2,-8.999999613E-3,-1.080000028E-1
1.608999420E0,1.539999992E-1,8.000000380E-3,-4.199999943E-2
1.613961621E0,2.310000062E-1,1.340000033E-1,1.040000021E-1
1.618923775E0,1.220000014E-1,1.230000034E-1,2.109999955E-1
1.623886145E0,2.259999961E-1,8.500000089E-2,1.270000041E-1
1.628848376E0,3.860000074E-1,5.900000036E-2,1.400000006E-1
1.633810453E0,4.499999881E-1,4.699999839E-2,2.610000074E-1
1.638772712E0,2.269999981E-1,7.000000030E-2,-2.300000004E-2
1.643735097E0,1.410000026E-1,9.600000083E-2,-1.319999993E-1
1.648697251E0,1.110000014E-1,5.499999970E-2,-3.089999855E-1
1.653659395E0,2.500000037E-2,5.499999970E-2,-3.230000138E-1
1.658621856E0,-4.199999943E-2,-1.700000092E-2,-2.249999940E-1
1.663584015E0,-1.959999949E-1,-1.400000006E-1,-1.299999952E-1
1.668546169E0,-3.370000124E-1,-1.930000037E-1,-4.899999872E-2
1.673508323E0,-4.230000079E-1,-3.009999990E-1,3.000000026E-3
1.678470496E0,-3.729999959E-1,-2.689999938E-1,8.999999613E-3
1.683432727E0,-4.280000031E-1,-1.700000018E-1,2.099999972E-2
1.688395111E0,-1.449999958E-1,-1.959999949E-1,-3.299999982E-2
1.693357251E0,5.700000003E-2,-1.659999937E-1,1.280000061E-1
1.698319405E0,-5.000000075E-2,-7.500000298E-2,8.299999684E-2
1.703281650E0,-1.049999967E-1,-1.799999923E-2,1.350000054E-1
1.708243804E0,3.000000026E-3,9.200000018E-2,1.200000010E-2
1.713205957E0,1.930000037E-1,9.399999678E-2,6.499999762E-2
1.718168352E0,8.900000155E-2,1.299999952E-1,5.299999937E-2
1.723130506E0,2.360000014E-1,2.399999946E-1,7.999999821E-2
1.728092737E0,1.790000051E-1,2.300000004E-2,7.900000364E-2
1.733054862E0,8.200000226E-2,9.999999776E-3,1.330000013E-1
1.738017015E0,-2.700000070E-2,-9.999999776E-3,1.840000004E-1
1.742979385E0,-1.239999980E-1,-3.599999845E-2,1.999999955E-2
1.747941539E0,-2.070000023E-1,4.999999888E-3,-7.500000298E-2
1.752903693E0,-1.940000057E-1,-1.159999967E-1,-1.999999955E-2
1.757865939E0,-2.339999974E-1,-2.999999933E-2,4.600000009E-2
1.762828323E0,-3.569999933E-1,-1.110000014E-1,8.600000292E-2
1.767790246E0,-3.330000043E-1,-4.300000146E-2,1.949999928E-1
1.772752601E0,-3.359999955E-1,-2.060000002E-1,2.220000029E-1
1.777714832E0,-1.270000041E-1,-8.600000292E-2,2.440000027E-1
1.782677005E0,-2.520000041E-1,-4.500000179E-2,2.300000042E-1
1.787639158E0,-1.319999993E-1,-6.000000052E-3,1.630000025E-1
1.792601543E0,-2.020000070E-1,8.500000089E-2,1.230000034E-1
1.797563712E0,-1.780000031E-1,-5.000000075E-2,-2.500000037E-2
1.802525866E0,-5.600000173E-2,-6.700000167E-2,-1.599999964E-1
1.807488096E0,-4.000000190E-3,1.059999987E-1,-1.309999973E-1
1.812450240E0,8.900000155E-2,1.979999989E-1,-2.389999926E-1
1.817412625E0,7.199999690E-2,1.850000024E-1,-4.440000057E-1
1.822374731E0,8.399999887E-2,2.630000114E-1,-6.589999795E-1
1.827336885E0,1.790000051E-1,7.100000232E-2,-7.810000181E-1
1.832299346E0,4.100000113E-2,1.529999971E-1,-9.039999843E-1
1.837261500E0,2.700000070E-2,1.899999939E-2,-8.510000110E-1
1.842223654E0,-4.399999976E-2,-1.420000046E-1,-7.289999723E-1
1.847185885E0,-1.319999993E-1,-2.039999962E-1,-3.919999897E-1
1.852148029E0,-2.479999959E-1,-3.740000129E-1,-1.110000014E-1
1.857110182E0,-4.830000103E-1,-2.720000148E-1,3.230000138E-1
1.862072553E0,-8.009999990E-1,-4.779999852E-1,2.080000043E-1
1.867034784E0,-2.639999986E-1,-6.330000162E-1,4.609999955E-1
1.871996861E0,-2.189999968E-1,-5.279999971E-1,9.869999886E-1
1.876959082E0,-2.540000081E-1,-5.730000138E-1,1.294999957E0
1.881921235E0,-8.299999684E-2,-4.830000103E-1,1.508999944E0
1.886883389E0,-4.000000190E-3,-5.049999952E-1,1.559999943E0
1.891845784E0,1.700000018E-1,-3.930000067E-1,1.598999977E0
1.896807938E0,4.020000100E-1,-2.160000056E-1,1.409000039E0
1.901770169E0,4.169999957E-1,-1.500000060E-1,1.205999970E0
1.906732553E0,4.059999883E-1,1.150000021E-1,8.820000291E-1
1.911694476E0,5.189999938E-1,2.029999942E-1,3.140000105E-1
1.916656827E0,2.590000033E-1,2.939999998E-1,-1.340000033E-1
1.921619058E0,2.049999982E-1,2.409999967E-1,-5.090000033E-1
1.926581212E0,2.899999917E-2,4.760000110E-1,-8.579999804E-1
1.931543317E0,-7.800000161E-2,3.160000145E-1,-1.098000050E0
1.936505702E0,-1.459999979E-1,3.219999969E-1,-1.312000036E0
1.941467899E0,-2.160000056E-1,3.149999976E-1,-1.348999977E0
1.946430053E0,-3.810000122E-1,2.430000007E-1,-1.279000044E0
1.951392284E0,-3.840000033E-1,2.140000015E-1,-1.101999998E0
1.956354447E0,-3.880000114E-1,2.000000030E-1,-9.520000219E-1
1.961316832E0,-3.779999912E-1,5.200000107E-2,-8.439999819E-1
1.966278986E0,-2.450000048E-1,1.400000043E-2,-6.549999714E-1
1.971241116E0,-1.400000006E-1,5.799999833E-2,-3.300000131E-1
1.976203347E0,-7.100000232E-2,-7.299999893E-2,-1.550000012E-1
1.981165514E0,1.999999955E-2,-6.899999827E-2,1.679999977E-1
1.986127668E0,1.369999945E-1,-1.199999973E-1,3.569999933E-1
1.991090053E0,1.729999930E-1,-1.580000073E-1,3.959999979E-1
1.996052275E0,1.969999969E-1,-2.240000069E-1,6.940000057E-1
2.001014352E0,1.700000092E-2,-3.179999888E-1,6.250000000E-1
2.005976582E0,-9.300000221E-2,-2.910000086E-1,6.529999971E-1
2.010938976E0,-1.080000028E-1,-2.649999857E-1,5.310000181E-1
2.015900899E0,-1.289999932E-1,-3.089999855E-1,3.420000076E-1
2.020863294E0,-7.400000095E-2,-2.689999938E-1,2.060000002E-1
2.025825524E0,-4.699999839E-2,-1.089999974E-1,1.120000035E-1
2.030787678E0,-3.400000185E-2,-4.500000179E-2,-1.159999967E-1
2.035750077E0,-1.799999923E-2,-8.900000155E-2,-1.819999963E-1
2.040712231E0,4.800000042E-2,2.000000095E-3,-1.260000020E-1
2.045674385E0,4.699999839E-2,1.070000008E-1,-2.469999939E-1
2.050636539E0,4.999999888E-3,1.589999944E-1,-2.730000019E-1
2.055598769E0,3.000000026E-3,1.040000021E-1,-2.119999975E-1
2.060560928E0,-3.999999911E-2,4.699999839E-2,-1.289999932E-1
2.065523313E0,-1.110000014E-1,-7.599999756E-2,7.500000298E-2
2.070485544E0,-1.420000046E-1,8.500000089E-2,1.299999952E-1
2.075447650E0,-8.500000089E-2,8.000000380E-3,2.770000100E-1
2.080409880E0,3.400000185E-2,-1.570000052E-1,2.779999971E-1
2.085372034E0,4.600000009E-2,-1.199999973E-1,3.759999871E-1
2.090334188E0,3.000000026E-3,-1.389999986E-1,3.100000024E-1
2.095296573E0,-3.700000048E-2,-1.550000012E-1,3.179999888E-1
2.100258803E0,-3.700000048E-2,-2.280000001E-1,2.249999940E-1
2.105220957E0,2.610000074E-1,-3.319999874E-1,2.700000107E-1
2.110183111E0,2.210000008E-1,-2.590000033E-1,2.070000023E-1
2.115145491E0,-1.340000033E-1,-1.480000019E-1,1.110000014E-1
2.120107645E0,-3.479999900E-1,-1.169999987E-1,4.899999872E-2
2.125069798E0,-3.610000014E-1,-1.289999932E-1,-1.080000028E-1
2.130032053E0,-2.399999946E-1,-5.799999833E-2,-1.159999967E-1
2.134994207E0,-9.899999946E-2,-4.399999976E-2,-1.630000025E-1
2.139956626E0,-5.900000036E-2,6.700000167E-2,-1.850000024E-1
2.144918549E0,-6.100000069E-2,1.379999965E-1,-2.750000060E-1
2.149880933E0,5.999999866E-2,1.829999983E-1,-3.930000067E-1
2.154843173E0,-6.000000052E-3,2.800000012E-1,-4.950000048E-1
2.159805327E0,8.799999952E-2,2.700000107E-1,-5.310000181E-1
2.164767481E0,1.550000012E-1,2.240000069E-1,-4.050000012E-1
2.169729871E0,1.659999937E-1,2.879999876E-1,-3.350000083E-1
2.174692101E0,1.920000017E-1,3.030000031E-1,-2.269999981E-1
2.179654173E0,2.969999909E-1,1.500000060E-1,-2.669999897E-1
2.184616404E0,2.280000001E-1,1.080000028E-1,-1.580000073E-1
2.189578789E0,2.269999981E-1,5.400000140E-2,-2.199999988E-2
2.194540707E0,2.360000014E-1,9.300000221E-2,5.900000036E-2
2.199503091E0,3.019999862E-1,0.000000000E0,5.799999833E-2
2.204465322E0,3.000000119E-1,-9.399999678E-2,2.339999974E-1
2.209427467E0,2.179999948E-1,-1.469999999E-1,2.599999905E-1
2.214389621E0,2.020000070E-1,-9.099999815E-2,3.199999928E-1
2.219351760E0,2.140000015E-1,-1.979999989E-1,2.639999986E-1
2.224314144E0,1.190000027E-1,-3.339999914E-1,3.729999959E-1
2.229276298E0,5.200000107E-2,-2.660000026E-1,4.410000145E-1
2.234238452E0,2.400000021E-2,-3.709999919E-1,4.379999936E-1
2.239200683E0,-2.899999917E-2,-3.289999962E-1,4.650000036E-1
2.244163068E0,-2.700000070E-2,-2.630000114E-1,1.940000057E-1
2.249125236E0,-6.499999762E-2,-2.259999961E-1,-7.000000216E-3
2.254087390E0,-8.299999684E-2,-2.230000049E-1,-1.710000038E-1
2.259049621E0,-1.609999985E-1,-1.599999964E-1,-4.009999931E-1
2.264011775E0,-9.099999815E-2,-8.299999684E-2,-4.930000007E-1
2.268973929E0,-4.800000042E-2,4.699999839E-2,-6.809999943E-1
2.273936308E0,-6.499999762E-2,7.699999958E-2,-9.319999814E-1
2.278898462E0,-6.300000101E-2,2.070000023E-1,-9.969999790E-1
2.283860693E0,1.799999923E-2,1.770000011E-1,-1.064000010E0
2.288822832E0,1.000000015E-1,1.770000011E-1,-8.730000257E-1
2.293784986E0,1.589999944E-1,1.400000006E-1,-9.219999909E-1
2.298747140E0,4.800000042E-2,5.700000003E-2,-7.310000062E-1
2.303709524E0,1.140000001E-1,1.289999932E-1,-5.690000057E-1
2.308671678E0,4.399999976E-2,-1.499999966E-2,-2.590000033E-1
2.313633914E0,2.600000054E-2,-9.899999946E-2,6.000000052E-3
2.318596068E0,-2.000000095E-3,-2.280000001E-1,2.879999876E-1
2.323558452E0,-3.200000152E-2,-2.090000063E-1,4.490000010E-1
2.328520375E0,-6.100000069E-2,-2.179999948E-1,6.230000257E-1
2.333482837E0,-1.630000025E-1,-2.109999955E-1,6.869999766E-1
2.338444904E0,-1.909999996E-1,-3.950000107E-1,7.519999743E-1
2.343407135E0,-1.640000045E-1,-3.939999938E-1,7.779999971E-1
2.348369289E0,-2.329999954E-1,-3.799999952E-1,7.509999871E-1
2.353331457E0,-5.400000140E-2,-1.150000021E-1,5.230000019E-1
2.358293842E0,-1.889999956E-1,-1.560000032E-1,3.459999859E-1
2.363255996E0,-9.300000221E-2,-7.699999958E-2,1.019999981E-1
2.368218106E0,-2.400000021E-2,-1.200000010E-2,-1.000000015E-1
2.373180337E0,-8.000000380E-3,3.099999949E-2,-2.029999942E-1
2.378142716E0,-7.000000216E-3,6.800000370E-2,-2.829999924E-1
2.383104870E0,7.400000095E-2,3.900000080E-2,-4.589999914E-1
2.388067024E0,1.570000052E-1,1.609999985E-1,-5.270000100E-1
2.393029255E0,5.900000036E-2,1.010000035E-1,-4.749999940E-1
2.397991332E0,8.600000292E-2,-6.199999899E-2,-3.529999852E-1
2.402953562E0,-9.000000358E-2,-1.140000001E-1,-1.630000025E-1
2.407915963E0,4.999999888E-3,-6.899999827E-2,-1.110000014E-1
2.412878117E0,-4.600000009E-2,-7.000000030E-2,1.539999992E-1
2.417840376E0,-3.099999949E-2,-7.900000364E-2,1.509999931E-1
2.422802530E0,9.999999776E-3,-1.700000018E-1,1.630000025E-1
2.427764606E0,-2.999999933E-2,-9.799999744E-2,2.700000107E-1
2.432726828E0,-4.100000113E-2,-2.370000035E-1,2.980000079E-1
2.437689213E0,-1.080000028E-1,-1.780000031E-1,2.820000052E-1
2.442651367E0,1.230000034E-1,-1.220000014E-1,1.860000044E-1
2.447613516E0,1.089999974E-1,-1.490000039E-1,2.540000081E-1
2.452575746E0,1.400000006E-1,-3.599999845E-2,7.400000095E-2
2.457537900E0,1.110000014E-1,-2.199999988E-2,1.289999932E-1
2.462500054E0,1.400000043E-2,-6.400000304E-2,1.150000021E-1
2.467462439E0,2.700000070E-2,-6.499999762E-2,2.380000055E-1
2.472424593E0,2.400000021E-2,1.499999966E-2,3.400000185E-2
2.477386823E0,-1.600000076E-2,4.199999943E-2,-7.400000095E-2
2.482348977E0,5.099999905E-2,0.000000000E0,3.500000015E-2
2.487311145E0,2.400000021E-2,6.800000370E-2,-7.299999893E-2
2.492273530E0,-2.000000095E-3,-2.800000086E-2,-1.129999980E-1
2.497235698E0,2.500000037E-2,1.070000008E-1,-1.809999943E-1
2.502197851E0,5.400000140E-2,5.299999937E-2,-1.129999980E-1
2.507160082E0,8.200000226E-2,1.220000014E-1,-1.679999977E-1
2.512122250E0,3.999999911E-2,7.400000095E-2,-1.230000034E-1
2.517084404E0,1.220000014E-1,1.689999998E-1,-1.369999945E-1
2.522046789E0,6.800000370E-2,6.100000069E-2,-9.600000083E-2
2.527008910E0,1.080000028E-1,6.100000069E-2,-2.460000068E-1
2.531971064E0,1.389999986E-1,1.600000076E-2,-1.220000014E-1
2.536933251E0,1.770000011E-1,8.500000089E-2,-6.800000370E-2
2.541895405E0,3.799999878E-2,-9.099999815E-2,2.500000037E-2
2.546857789E0,3.500000015E-2,1.899999939E-2,2.290000021E-1
2.551819938E0,1.700000092E-2,-6.499999762E-2,2.230000049E-1
2.556782092E0,4.199999943E-2,-6.400000304E-2,1.539999992E-1
2.561744246E0,4.199999943E-2,3.099999949E-2,1.270000041E-1
2.566706434E0,-6.700000167E-2,-8.999999613E-3,1.400000006E-1
2.571668588E0,-1.099999994E-2,-3.299999982E-2,1.600000076E-2
2.576630771E0,-3.799999878E-2,-5.999999866E-2,1.389999986E-1
2.581593155E0,-1.099999994E-2,3.500000015E-2,1.250000000E-1
2.586555386E0,-2.400000021E-2,-3.200000152E-2,4.300000146E-2
2.591517549E0,-9.799999744E-2,8.999999613E-3,1.600000076E-2
2.596479933E0,-1.400000043E-2,8.999999613E-3,2.000000095E-3
2.601442087E0,-1.209999993E-1,8.999999613E-3,-3.799999878E-2
2.606404251E0,-3.700000048E-2,-3.000000026E-3,-2.400000021E-2
2.611366405E0,-9.700000286E-2,-7.999999821E-2,0.000000000E0
2.616328559E0,-9.499999881E-2,-3.900000080E-2,-1.080000028E-1
2.621290790E0,-7.900000364E-2,-3.900000080E-2,-7.999999821E-2
2.626252944E0,-5.099999905E-2,1.400000043E-2,-1.209999993E-1
2.631215083E0,-3.299999982E-2,9.999999776E-3,-9.099999815E-2
2.636177468E0,-6.000000052E-3,-4.399999976E-2,-6.400000304E-2
2.641139699E0,7.000000216E-3,-5.799999833E-2,-1.040000021E-1
2.646101775E0,-1.140000001E-1,-4.000000190E-3,-1.180000007E-1
2.651064006E0,-9.300000221E-2,-2.899999917E-2,4.399999976E-2
2.656026395E0,4.399999976E-2,-2.000000095E-3,-1.040000021E-1
2.660988549E0,8.699999750E-2,-5.799999833E-2,-1.850000024E-1
2.665950703E0,3.500000015E-2,3.599999845E-2,-2.119999975E-1
2.670912833E0,-1.600000076E-2,1.000000047E-3,-2.220000029E-1
2.675874987E0,-6.899999827E-2,-1.300000027E-2,-2.349999994E-1
2.680837217E0,-1.640000045E-1,-9.399999678E-2,-2.890000045E-1
2.685799352E0,-8.200000226E-2,-6.700000167E-2,-2.479999959E-1
2.690761506E0,-1.270000041E-1,-9.200000018E-2,-1.129999980E-1
2.695723891E0,-5.900000036E-2,-1.319999993E-1,2.199999988E-2
2.700686121E0,-1.140000001E-1,-2.669999897E-1,9.000000358E-2
2.705648198E0,-1.959999949E-1,-1.299999952E-1,-4.600000009E-2
2.710610419E0,-1.059999987E-1,-1.230000034E-1,-4.899999872E-2
2.715572804E0,-1.589999944E-1,-2.169999927E-1,-6.300000101E-2
2.720534727E0,-1.319999993E-1,-2.600000054E-2,-6.300000101E-2
2.725497107E0,-2.280000001E-1,-1.199999973E-1,-1.180000007E-1
2.730459337E0,-2.269999981E-1,-3.299999982E-2,4.300000146E-2
2.735421409E0,-2.000000030E-1,-8.600000292E-2,-1.070000008E-1
2.740383640E0,-1.059999987E-1,-1.700000092E-2,0.000000000E0
2.745346025E0,6.800000370E-2,2.500000037E-2,-5.499999970E-2
2.750307982E0,1.899999976E-1,-7.699999958E-2,8.000000380E-3
2.755270366E0,1.879999936E-1,1.150000021E-1,-1.150000021E-1
2.760232597E0,1.340000033E-1,7.699999958E-2,-7.000000216E-3
2.765194669E0,1.749999970E-1,1.209999993E-1,-8.999999613E-3
2.770156900E0,2.280000001E-1,1.439999938E-1,7.299999893E-2
2.775119088E0,1.599999964E-1,1.190000027E-1,-2.300000004E-2
2.780081242E0,6.499999762E-2,5.400000140E-2,4.300000146E-2
2.785043626E0,2.500000037E-2,-2.300000004E-2,1.640000045E-1
2.790005871E0,-7.699999958E-2,-1.159999967E-1,2.380000055E-1
2.794968025E0,-1.580000073E-1,-1.930000037E-1,3.580000103E-1
2.799930165E0,-2.099999934E-1,-2.730000019E-1,3.709999919E-1
2.804892549E0,-8.500000089E-2,-1.490000039E-1,1.930000037E-1
2.809854458E0,-1.030000001E-1,-7.400000095E-2,4.100000113E-2
2.814816843E0,-1.270000041E-1,-1.550000012E-1,9.499999881E-2
2.819778997E0,-4.399999976E-2,-5.999999866E-2,1.360000074E-1
2.824741146E0,-4.300000146E-2,-4.699999839E-2,-6.700000167E-2
2.829703377E0,-1.159999967E-1,4.399999976E-2,-9.999999776E-3
2.834665737E0,-3.400000185E-2,-2.500000037E-2,3.099999949E-2
2.839627660E0,-8.799999952E-2,-2.600000054E-2,-1.580000073E-1
2.844590045E0,-1.999999955E-2,-4.100000113E-2,-3.339999914E-1
2.849552213E0,-5.499999970E-2,2.000000095E-3,-3.149999976E-1
2.854514367E0,4.100000113E-2,9.499999881E-2,-2.460000068E-1
2.859476597E0,1.080000028E-1,9.499999881E-2,-3.409999907E-1
2.864438968E0,6.700000167E-2,1.360000074E-1,-1.369999945E-1
2.869400891E0,4.800000042E-2,2.500000037E-2,-5.400000140E-2
2.874363271E0,1.150000021E-1,2.500000037E-2,-6.800000370E-2
2.879325425E0,1.140000001E-1,2.600000054E-2,3.900000080E-2
2.884287578E0,4.500000179E-2,-8.100000024E-2,2.500000037E-2
2.889249842E0,6.700000167E-2,1.400000043E-2,6.499999762E-2
2.894211996E0,-1.000000047E-3,1.499999966E-2,-3.000000026E-3
2.899174150E0,-9.600000083E-2,-7.900000364E-2,9.999999776E-3
2.904136502E0,-1.089999974E-1,4.199999943E-2,-1.120000035E-1
2.909098655E0,-1.270000041E-1,-5.099999905E-2,-7.100000232E-2
2.914060809E0,-1.120000035E-1,2.999999933E-2,-9.799999744E-2
2.919023040E0,-5.799999833E-2,2.999999933E-2,-7.100000232E-2
2.923985425E0,1.040000021E-1,3.000000026E-3,-7.100000232E-2
2.928947348E0,5.799999833E-2,6.599999964E-2,-2.800000086E-2
2.933909708E0,1.519999951E-1,-2.000000095E-3,-2.039999962E-1
2.938871862E0,1.099999994E-1,7.900000364E-2,-2.319999933E-1
2.943834016E0,1.220000014E-1,-1.499999966E-2,-8.200000226E-2
2.948796271E0,1.379999965E-1,-2.800000086E-2,-4.199999943E-2
2.953758425E0,1.220000014E-1,5.299999937E-2,-1.250000000E-1
2.958720579E0,3.900000080E-2,0.000000000E0,-1.600000076E-2
2.963682972E0,3.700000048E-2,-2.600000054E-2,6.400000304E-2
2.968645126E0,-4.999999888E-3,-2.300000004E-2,3.500000015E-2
2.973607275E0,5.999999866E-2,1.799999923E-2,1.159999967E-1
2.978569506E0,4.500000179E-2,-8.000000380E-3,2.380000055E-1
2.983531890E0,9.799999744E-2,-1.030000001E-1,1.430000067E-1
2.988493804E0,3.799999878E-2,-5.499999970E-2,1.659999937E-1
2.993456189E0,1.049999967E-1,-1.400000043E-2,3.149999976E-1
2.998418343E0,6.300000101E-2,-2.800000086E-2,2.339999974E-1
3.003380477E0,1.180000007E-1,3.900000080E-2,2.199999988E-1
3.008342708E0,1.350000054E-1,2.999999933E-2,2.720000148E-1
3.013304871E0,1.350000054E-1,7.100000232E-2,1.899999976E-1
3.018267025E0,6.800000370E-2,7.000000030E-2,8.200000226E-2
3.023229179E0,2.060000002E-1,1.230000034E-1,1.400000043E-2
3.028191338E0,5.299999937E-2,4.100000113E-2,9.600000083E-2
3.033153723E0,0.000000000E0,1.350000054E-1,-2.500000037E-2
3.038115953E0,4.199999943E-2,5.200000107E-2,-1.059999987E-1
3.043078107E0,4.300000146E-2,6.599999964E-2,-6.499999762E-2
3.048040261E0,-3.400000185E-2,3.500000015E-2,-4.899999872E-2
3.053002670E0,-1.010000035E-1,3.500000015E-2,-3.500000015E-2
3.057964824E0,-1.550000012E-1,-3.200000152E-2,1.129999980E-1
3.062926977E0,-1.679999977E-1,-4.000000190E-3,1.129999980E-1
3.067889188E0,-1.949999928E-1,-7.599999756E-2,1.909999996E-1
3.072851265E0,-2.210000008E-1,-1.700000018E-1,3.129999936E-1
3.077813496E0,-9.700000286E-2,-1.710000038E-1,2.039999962E-1
3.082775915E0,-1.640000045E-1,-1.589999944E-1,1.369999945E-1
3.087737838E0,-2.600000054E-2,-4.500000179E-2,1.350000054E-1
3.092700255E0,1.000000047E-3,-1.899999939E-2,0.000000000E0
3.097662409E0,-5.200000107E-2,1.799999923E-2,1.499999966E-2
3.102624563E0,2.899999917E-2,5.499999970E-2,-1.049999967E-1
3.107586794E0,-9.999999776E-3,-4.199999943E-2,-6.300000101E-2
3.112548948E0,1.600000076E-2,1.180000007E-1,-2.249999940E-1
3.117511102E0,-2.400000021E-2,8.799999952E-2,-3.050000072E-1
3.122473283E0,1.600000076E-2,1.120000035E-1,-2.770000100E-1
3.127435668E0,3.000000026E-3,4.699999839E-2,-2.169999927E-1
3.132397822E0,-3.700000048E-2,-8.999999613E-3,-2.700000107E-1
3.137360053E0,-9.099999815E-2,-3.700000048E-2,-3.379999995E-1
3.142322437E0,-9.099999815E-2,-7.800000161E-2,-2.419999987E-1
3.147284389E0,-4.500000179E-2,-9.200000018E-2,-2.280000001E-1
3.152246543E0,-4.399999976E-2,-9.999999776E-3,-2.010000050E-1
3.157208697E0,-7.100000232E-2,-4.899999872E-2,-1.330000013E-1
3.162171092E0,-1.700000092E-2,-7.599999756E-2,-2.500000037E-2
3.167133323E0,-9.200000018E-2,-3.099999949E-2,2.700000070E-2
3.172095485E0,-9.099999815E-2,-8.500000089E-2,1.300000027E-2
3.177057639E0,3.000000026E-3,-8.399999887E-2,-4.100000113E-2
3.182019793E0,-9.099999815E-2,-1.389999986E-1,0.000000000E0
3.186982188E0,-1.099999994E-1,-1.459999979E-1,-5.700000003E-2
3.191944111E0,-1.780000031E-1,-1.319999993E-1,9.999999776E-3
3.196906495E0,-1.099999994E-1,-1.049999967E-1,-1.600000076E-2
3.201868711E0,-4.300000146E-2,-3.799999878E-2,1.059999987E-1
3.206830865E0,-9.200000018E-2,-2.500000037E-2,-5.499999970E-2
3.211793000E0,2.000000095E-3,-2.700000070E-2,1.209999993E-1
3.216755077E0,9.600000083E-2,-1.400000043E-2,-1.770000011E-1
3.221717308E0,1.089999974E-1,1.099999994E-2,-3.999999911E-2
3.226679707E0,1.260000020E-1,4.600000009E-2,-9.300000221E-2
3.231641861E0,5.600000173E-2,-2.199999988E-2,-5.099999905E-2
3.236604015E0,1.509999931E-1,1.000000015E-1,-1.059999987E-1
3.241566260E0,9.600000083E-2,1.539999992E-1,-1.330000013E-1
3.246528644E0,1.019999981E-1,9.200000018E-2,-8.900000155E-2
3.251490553E0,1.010000035E-1,9.200000018E-2,-7.500000298E-2
3.256452938E0,-7.000000216E-3,-9.700000286E-2,4.999999888E-3
3.261415092E0,-2.199999988E-2,-5.600000173E-2,7.299999893E-2
3.266377231E0,-5.999999866E-2,-6.100000069E-2,1.640000045E-1
3.271339385E0,8.799999952E-2,-1.000000015E-1,1.500000060E-1
3.276301539E0,1.010000035E-1,4.800000042E-2,1.630000025E-1
3.281263774E0,1.410000026E-1,6.100000069E-2,-3.999999911E-2
3.286225928E0,1.070000008E-1,7.100000232E-2,4.199999943E-2
3.291188048E0,9.200000018E-2,4.199999943E-2,-9.999999776E-3
3.296150202E0,1.059999987E-1,1.089999974E-1,-9.099999815E-2
3.301112587E0,2.400000021E-2,2.600000054E-2,-1.589999944E-1
3.306074706E0,9.799999744E-2,5.200000107E-2,7.199999690E-2
3.311036937E0,1.499999966E-2,3.799999878E-2,-1.040000021E-1
3.315999284E0,-3.799999878E-2,-2.999999933E-2,-3.599999845E-2
3.320961207E0,-5.200000107E-2,-1.389999986E-1,-4.899999872E-2
3.325923361E0,-5.999999866E-2,-5.499999970E-2,-2.300000004E-2
3.330885740E0,1.169999987E-1,-1.400000043E-2,-1.180000007E-1
3.335847894E0,8.000000380E-3,5.299999937E-2,-1.319999993E-1
3.340810048E0,7.699999958E-2,3.900000080E-2,-9.099999815E-2
3.345772279E0,-2.800000086E-2,-2.999999933E-2,-1.439999938E-1
3.350734433E0,-1.400000043E-2,-4.399999976E-2,-1.030000001E-1
3.355696779E0,8.100000024E-2,9.999999776E-3,-2.099999972E-2
3.360658933E0,9.399999678E-2,1.059999987E-1,4.600000009E-2
3.365620856E0,1.140000001E-1,-1.400000043E-2,4.399999976E-2
3.370583241E0,3.099999949E-2,0.000000000E0,1.659999937E-1
3.375545472E0,-8.999999613E-3,-2.700000070E-2,8.500000089E-2
3.380507626E0,-3.700000048E-2,1.300000027E-2,1.250000000E-1
3.385469769E0,-5.900000036E-2,-3.700000048E-2,5.600000173E-2
3.390432154E0,-1.700000092E-2,1.600000076E-2,4.199999943E-2
3.395394308E0,-7.000000030E-2,-1.099999994E-2,2.899999917E-2
3.400356447E0,-1.400000043E-2,-1.200000010E-2,-9.200000018E-2
3.405318601E0,2.600000054E-2,-1.000000047E-3,-9.000000358E-2
3.410280779E0,-2.600000054E-2,1.059999987E-1,-7.599999756E-2
3.415243010E0,-7.999999821E-2,1.049999967E-1,-1.840000004E-1
3.420205164E0,2.899999917E-2,2.300000004E-2,-3.199999928E-1
3.425167341E0,4.199999943E-2,7.699999958E-2,-3.260000050E-1
3.430129495E0,4.199999943E-2,4.800000042E-2,-2.440000027E-1
3.435091879E0,1.400000043E-2,8.900000155E-2,-1.350000054E-1
3.440054029E0,0.000000000E0,-1.799999923E-2,-9.499999881E-2
3.445016183E0,-1.260000020E-1,-3.000000026E-3,1.300000027E-2
3.449978394E0,-9.799999744E-2,-1.650000066E-1,-4.100000113E-2
3.454940548E0,-1.659999937E-1,-4.199999943E-2,-2.800000086E-2
3.459902702E0,-1.239999980E-1,0.000000000E0,-2.800000086E-2
3.464864872E0,-1.159999967E-1,-2.199999988E-2,1.049999967E-1
3.469827025E0,-1.010000035E-1,-4.800000042E-2,1.040000021E-1
3.474789410E0,-1.150000021E-1,-1.420000046E-1,2.540000081E-1
3.479751564E0,-7.000000216E-3,-1.150000021E-1,2.259999961E-1
3.484713718E0,1.700000092E-2,-3.900000080E-2,1.949999928E-1
3.489675958E0,1.700000092E-2,4.100000113E-2,1.270000041E-1
3.494638111E0,1.529999971E-1,5.400000140E-2,1.140000001E-1
3.499600265E0,5.799999833E-2,6.599999964E-2,-7.000000216E-3
3.504562448E0,5.400000140E-2,1.999999955E-2,-1.000000015E-1
3.509524833E0,1.490000039E-1,4.600000009E-2,-2.080000043E-1
3.514486987E0,1.209999993E-1,-8.000000380E-3,-2.220000029E-1
3.519449155E0,9.399999678E-2,1.129999980E-1,-2.890000045E-1
3.524411386E0,1.650000066E-1,4.899999872E-2,-2.169999927E-1
3.529373490E0,4.100000113E-2,2.099999972E-2,-1.490000039E-1
3.534335721E0,6.800000370E-2,2.199999988E-2,-1.300000027E-2
3.539297875E0,5.499999970E-2,8.999999613E-3,2.029999942E-1
3.544260044E0,-8.699999750E-2,-1.010000035E-1,1.430000067E-1
3.549222428E0,-4.000000190E-3,-5.700000003E-2,1.689999998E-1
3.554184582E0,-2.000000095E-3,-2.899999917E-2,1.420000046E-1
3.559146750E0,-4.100000113E-2,5.299999937E-2,1.280000061E-1
3.564108904E0,-6.199999899E-2,-2.300000004E-2,1.120000035E-1
3.569071178E0,-1.899999939E-2,3.200000152E-2,4.300000146E-2
3.574033331E0,3.599999845E-2,5.900000036E-2,-2.400000021E-2
3.578995716E0,1.049999967E-1,7.299999893E-2,4.300000146E-2
3.583957856E0,8.500000089E-2,8.000000380E-3,1.369999945E-1
3.588920010E0,5.700000003E-2,2.199999988E-2,1.089999974E-1
3.593882164E0,-1.190000027E-1,-4.999999888E-3,5.499999970E-2
3.598844308E0,-7.900000364E-2,-3.299999982E-2,2.189999968E-1
3.603806461E0,-1.140000001E-1,-5.200000107E-2,2.010000050E-1
3.608768697E0,-1.550000012E-1,-1.199999973E-1,1.739999950E-1
3.613730774E0,-4.600000009E-2,-7.999999821E-2,2.430000007E-1
3.618693005E0,4.899999872E-2,2.600000054E-2,1.209999993E-1
3.623655390E0,5.900000036E-2,0.000000000E0,6.599999964E-2
3.628617313E0,1.280000061E-1,5.200000107E-2,-2.700000070E-2
3.633579697E0,1.560000032E-1,7.699999958E-2,-5.299999937E-2
3.638541822E0,1.580000073E-1,7.000000216E-3,-2.500000037E-2
3.643504053E0,1.110000014E-1,6.300000101E-2,-2.099999934E-1
3.648466178E0,1.529999971E-1,6.100000069E-2,-2.630000114E-1
3.653428332E0,-7.000000216E-3,5.900000036E-2,-4.259999990E-1
3.658390716E0,-7.299999893E-2,-2.300000004E-2,-4.250000119E-1
3.663352673E0,-5.200000107E-2,4.000000190E-3,-4.309999943E-1
3.668314827E0,-9.099999815E-2,-1.059999987E-1,-3.210000098E-1
3.673276981E0,-1.449999958E-1,-1.190000027E-1,-3.350000083E-1
3.678239372E0,-7.699999958E-2,3.099999949E-2,-2.669999897E-1
3.683201602E0,2.899999917E-2,-1.099999994E-2,-1.299999952E-1
3.688163692E0,2.000000095E-3,-1.049999967E-1,-1.850000024E-1
3.693125923E0,7.000000030E-2,4.000000190E-3,-9.099999815E-2
3.698088308E0,7.000000030E-2,6.000000052E-3,-2.300000004E-2
3.703050227E0,9.000000358E-2,6.000000052E-3,-2.400000021E-2
3.708012611E0,4.800000042E-2,4.699999839E-2,1.239999980E-1
3.712974765E0,8.900000155E-2,-4.999999888E-3,3.149999976E-1
3.717936982E0,1.150000021E-1,-1.899999939E-2,1.650000066E-1
3.722899059E0,-1.999999955E-2,-2.400000021E-2,2.560000122E-1
3.727861290E0,-7.000000216E-3,-1.059999987E-1,2.419999987E-1
3.732823444E0,-6.199999899E-2,-1.209999993E-1,9.300000221E-2
3.737785598E0,-1.430000067E-1,0.000000000E0,-5.499999970E-2
3.742747958E0,-7.000000030E-2,-6.599999964E-2,-1.000000047E-3
3.747709881E0,-8.299999684E-2,5.400000140E-2,-5.499999970E-2
3.752672266E0,1.199999973E-1,6.599999964E-2,-2.310000062E-1
3.757634396E0,1.609999985E-1,6.499999762E-2,-2.709999979E-1
3.762596550E0,1.509999931E-1,3.799999878E-2,-3.059999943E-1
3.767558765E0,1.650000066E-1,1.459999979E-1,-2.779999971E-1
3.772520919E0,1.499999966E-2,-2.000000095E-3,-2.509999871E-1
3.777483073E0,2.000000095E-3,1.099999994E-2,-1.969999969E-1
3.782445194E0,-3.500000015E-2,2.300000004E-2,-5.999999866E-2
3.787407579E0,-2.099999972E-2,2.500000037E-2,-1.999999955E-2
3.792369732E0,-1.019999981E-1,-6.800000370E-2,1.010000035E-1
3.797331905E0,-4.699999839E-2,-7.999999821E-2,2.090000063E-1
3.802294136E0,3.099999949E-2,-4.600000009E-2,1.369999945E-1
3.807256227E0,-8.999999613E-3,-8.500000089E-2,3.269999921E-1
3.812218458E0,1.799999923E-2,-7.100000232E-2,9.499999881E-2
3.817180612E0,4.500000179E-2,2.300000004E-2,1.230000034E-1
3.822142790E0,2.899999917E-2,2.600000054E-2,1.620000005E-1
3.827105174E0,2.800000086E-2,-4.199999943E-2,2.029999942E-1
3.832067328E0,5.499999970E-2,-4.199999943E-2,6.700000167E-2
3.837029468E0,-3.999999911E-2,-1.600000076E-2,9.499999881E-2
3.841991622E0,-6.300000101E-2,-2.899999917E-2,2.700000070E-2
3.846953886E0,-4.899999872E-2,-1.940000057E-1,8.200000226E-2
3.851915962E0,-7.699999958E-2,-3.200000152E-2,4.199999943E-2
3.856878193E0,3.099999949E-2,1.999999955E-2,-1.739999950E-1
3.861840578E0,-4.600000009E-2,6.499999762E-2,-1.560000032E-1
3.866802501E0,2.199999988E-2,-8.600000292E-2,-1.270000041E-1
3.871764857E0,9.099999815E-2,3.500000015E-2,-2.360000014E-1
3.876726780E0,8.999999613E-3,7.000000216E-3,-1.669999957E-1
3.881688934E0,3.500000015E-2,1.400000043E-2,-1.780000031E-1
3.886651308E0,1.439999938E-1,1.360000074E-1,-1.500000060E-1
3.891613539E0,1.850000024E-1,3.999999911E-2,-1.360000074E-1
3.896575616E0,1.840000004E-1,8.100000024E-2,1.300000027E-2
3.901537832E0,1.449999958E-1,1.430000067E-1,6.899999827E-2
3.906500216E0,7.500000298E-2,1.999999955E-2,-2.500000037E-2
3.911462139E0,1.560000032E-1,-7.000000216E-3,-9.300000221E-2
3.916424303E0,5.999999866E-2,1.010000035E-1,-5.200000107E-2
3.921386688E0,1.819999963E-1,2.000000095E-3,-6.499999762E-2
3.926348842E0,1.120000035E-1,5.600000173E-2,-9.200000018E-2
3.931310996E0,8.399999887E-2,1.000000047E-3,7.100000232E-2
3.936273226E0,1.920000017E-1,-1.099999994E-2,4.399999976E-2
3.941235322E0,1.780000031E-1,-2.400000021E-2,1.499999966E-2
3.946197553E0,2.450000048E-1,2.899999917E-2,9.700000286E-2
3.951159726E0,3.999999911E-2,-1.469999999E-1,8.299999684E-2
3.956121880E0,-5.499999970E-2,-7.900000364E-2,1.509999931E-1
3.961084264E0,-2.700000070E-2,-1.319999993E-1,2.930000126E-1
3.966046428E0,-4.100000113E-2,4.000000190E-3,1.840000004E-1
3.971008582E0,-1.400000043E-2,-5.099999905E-2,6.199999899E-2
3.975970736E0,3.999999911E-2,-6.599999964E-2,-7.199999690E-2
3.980932976E0,-4.899999872E-2,3.299999982E-2,-1.490000039E-1
3.985895053E0,-7.000000216E-3,5.700000003E-2,-2.560000122E-1
3.990857283E0,-1.019999981E-1,6.800000370E-2,-3.370000124E-1
3.995819697E0,-7.400000095E-2,1.070000008E-1,-3.079999983E-1
4.000781620E0,-6.800000370E-2,1.759999990E-1,-4.850000143E-1
4.005743986E0,-5.400000140E-2,1.439999938E-1,-4.550000131E-1
4.010705909E0,-5.400000140E-2,1.150000021E-1,-6.179999709E-1
4.015668294E0,-2.800000086E-2,1.550000012E-1,-5.490000248E-1
4.020630432E0,-5.099999905E-2,1.289999932E-1,-6.169999838E-1
4.025592586E0,-8.100000024E-2,4.500000179E-2,-4.930000007E-1
4.030554740E0,-8.399999887E-2,-4.899999872E-2,-3.300000131E-1
4.035516947E0,7.000000216E-3,-8.799999952E-2,-1.819999963E-1
4.040479101E0,-1.099999994E-1,-6.800000370E-2,1.799999923E-2
4.045441246E0,-5.700000003E-2,-1.459999979E-1,9.799999744E-2
4.050403630E0,-1.679999977E-1,-1.570000052E-1,1.920000017E-1
4.055365784E0,-1.019999981E-1,-7.299999893E-2,3.409999907E-1
4.060327923E0,-1.350000054E-1,-1.609999985E-1,3.569999933E-1
4.065290154E0,-2.310000062E-1,-1.299999952E-1,2.329999954E-1
4.070252231E0,-1.770000011E-1,-7.500000298E-2,3.140000105E-1
4.075214476E0,-1.099999994E-1,-8.799999952E-2,2.590000033E-1
4.080176630E0,-6.599999964E-2,-5.099999905E-2,2.549999952E-1
4.085138716E0,-1.070000008E-1,-2.400000021E-2,6.400000304E-2
4.090100947E0,-1.759999990E-1,2.800000086E-2,-3.000000026E-3
4.095063332E0,-2.049999982E-1,-9.499999881E-2,6.499999762E-2
4.100025275E0,-2.440000027E-1,-9.099999815E-2,-1.600000076E-2
4.104987659E0,-3.930000067E-1,-9.200000018E-2,-5.700000003E-2
4.109949813E0,-3.680000007E-1,-1.199999973E-1,2.400000021E-2
4.114911982E0,-3.689999878E-1,-1.480000019E-1,-5.600000173E-2
4.119874213E0,-3.190000057E-1,-1.570000052E-1,-1.659999937E-1
4.124836362E0,-3.709999919E-1,-3.199999928E-1,6.499999762E-2
4.129798439E0,-3.720000088E-1,-2.509999871E-1,9.999999776E-3
4.134760669E0,-4.259999990E-1,-1.959999949E-1,1.319999993E-1
4.139723059E0,-3.849999905E-1,-2.310000062E-1,1.780000031E-1
4.144684982E0,-3.680000007E-1,-1.190000027E-1,5.499999970E-2
4.149647367E0,-3.260000050E-1,-3.100000024E-1,1.360000074E-1
4.154609506E0,-3.659999967E-1,-2.140000015E-1,6.800000370E-2
4.159571659E0,-3.930000067E-1,-2.380000055E-1,1.159999967E-1
4.164533832E0,-4.729999900E-1,-1.689999998E-1,7.500000298E-2
4.169496063E0,-5.009999871E-1,-2.240000069E-1,1.299999952E-1
4.174458217E0,-3.519999981E-1,-1.439999938E-1,4.800000042E-2
4.179420376E0,-2.669999897E-1,-1.749999970E-1,3.099999949E-2
4.184382760E0,-1.430000067E-1,-7.999999821E-2,1.799999923E-2
4.189344684E0,-6.199999899E-2,1.400000043E-2,-2.199999988E-2
4.194306818E0,-4.899999872E-2,1.080000028E-1,-7.599999756E-2
4.199269203E0,4.399999976E-2,8.699999750E-2,-5.799999833E-2
4.204231106E0,-8.000000380E-3,4.500000179E-2,-2.349999994E-1
4.209193491E0,-1.899999939E-2,1.129999980E-1,-2.619999945E-1
4.214155645E0,-1.250000000E-1,4.999999888E-3,-3.030000031E-1
4.219117799E0,-1.120000035E-1,1.000000015E-1,-3.350000083E-1
4.224080030E0,-9.600000083E-2,4.600000009E-2,-2.259999961E-1
4.229042184E0,-1.220000014E-1,3.400000185E-2,-1.180000007E-1
4.234004357E0,-1.360000074E-1,-9.799999744E-2,-2.400000021E-2
4.238966742E0,-3.900000080E-2,-3.500000015E-2,1.340000033E-1
4.243928909E0,1.099999994E-1,-1.899999939E-2,1.729999930E-1
4.248891063E0,1.909999996E-1,9.099999815E-2,1.990000010E-1
4.253853227E0,2.310000062E-1,-1.600000076E-2,3.079999983E-1
4.258815381E0,3.409999907E-1,1.700000092E-2,2.610000074E-1
4.263777535E0,2.680000067E-1,5.799999833E-2,4.779999852E-1
4.268739694E0,2.910000086E-1,-9.999999776E-3,4.110000134E-1
4.273701848E0,4.909999967E-1,-2.500000037E-2,4.519999921E-1
4.278663996E0,3.519999981E-1,-1.570000052E-1,4.539999962E-1
4.283626227E0,2.910000086E-1,3.099999949E-2,3.039999902E-1
4.288588304E0,1.780000031E-1,6.800000370E-2,2.649999857E-1
4.293550539E0,2.020000070E-1,1.449999958E-1,1.040000021E-1
4.298512924E0,3.000000119E-1,1.729999930E-1,6.800000370E-2
4.303475077E0,5.799999833E-1,1.669999957E-1,-1.190000027E-1
4.308437197E0,7.829999924E-1,2.039999962E-1,-1.309999973E-1
4.313399428E0,9.039999843E-1,1.870000064E-1,-2.790000141E-1
4.318361587E0,7.689999938E-1,2.440000027E-1,-2.700000107E-1
4.323323664E0,6.700000167E-1,2.939999998E-1,-3.089999855E-1
4.328285818E0,5.770000219E-1,1.030000001E-1,-4.040000141E-1
4.333248044E0,6.620000005E-1,9.000000358E-2,-4.309999943E-1
4.338210197E0,4.300000072E-1,1.010000035E-1,-3.569999933E-1
4.343172351E0,4.029999971E-1,-3.299999982E-2,-2.339999974E-1
4.348134476E0,2.300000042E-1,-8.500000089E-2,-2.349999994E-1
4.353096630E0,1.800000072E-1,-1.369999945E-1,-1.140000001E-1
4.358059005E0,2.349999994E-1,-1.550000012E-1,-7.900000364E-2
4.363020928E0,2.370000035E-1,-1.909999996E-1,2.700000070E-2
4.367983312E0,2.809999883E-1,-1.609999985E-1,-8.200000226E-2
4.372945524E0,3.519999981E-1,-2.269999981E-1,-2.000000095E-3
4.377907678E0,3.179999888E-1,-2.150000036E-1,-5.000000075E-2
4.382869832E0,3.310000002E-1,-1.309999973E-1,-1.330000013E-1
4.387831962E0,2.899999917E-1,-2.259999961E-1,-3.799999878E-2
4.392794116E0,3.440000117E-1,-2.529999912E-1,-7.800000161E-2
4.397756264E0,3.829999864E-1,-1.909999996E-1,-5.700000003E-2
4.402718418E0,2.809999883E-1,-1.920000017E-1,-3.000000026E-3
4.407680572E0,3.039999902E-1,-7.100000232E-2,6.499999762E-2
4.412642991E0,4.350000024E-1,-1.010000035E-1,1.200000010E-2
4.417605145E0,4.519999921E-1,-1.640000045E-1,-1.899999939E-2
4.422567049E0,4.289999902E-1,-4.399999976E-2,-1.410000026E-1
4.427529433E0,4.519999921E-1,4.699999839E-2,-1.529999971E-1
4.432491664E0,3.529999852E-1,-2.400000021E-2,-3.009999990E-1
4.437453707E0,3.019999862E-1,-9.999999776E-3,-3.639999926E-1
4.442415938E0,3.370000124E-1,-5.400000140E-2,-4.029999971E-1
4.447378092E0,1.840000004E-1,-1.400000043E-2,-4.029999971E-1
4.452340476E0,2.090000063E-1,3.999999911E-2,-3.479999900E-1
4.457302630E0,1.560000032E-1,1.190000027E-1,-3.140000105E-1
4.462264784E0,1.800000072E-1,1.459999979E-1,-3.810000122E-1
4.467226933E0,1.640000045E-1,1.879999936E-1,-3.280000091E-1
4.472189087E0,1.480000019E-1,1.899999976E-1,-2.469999939E-1
4.477151212E0,7.199999690E-2,2.409999967E-1,-1.979999989E-1
4.482113365E0,1.509999931E-1,1.860000044E-1,8.799999952E-2
4.487075596E0,-1.499999966E-2,3.370000124E-1,4.600000009E-2
4.492037750E0,-1.959999949E-1,2.700000107E-1,4.000000190E-3
4.496999904E0,-1.369999945E-1,2.460000068E-1,1.049999967E-1
4.501962058E0,-8.699999750E-2,2.720000148E-1,6.499999762E-2
4.506924222E0,-1.459999979E-1,3.659999967E-1,-2.899999917E-2
4.511886375E0,-1.640000045E-1,3.379999995E-1,-5.600000173E-2
4.516848563E0,-1.059999987E-1,3.519999981E-1,-2.049999982E-1
4.521810948E0,-1.500000060E-1,2.800000012E-1,-2.029999942E-1
4.526772871E0,-1.930000037E-1,2.919999957E-1,-2.569999993E-1
4.531735247E0,-3.319999874E-1,2.919999957E-1,-4.480000138E-1
4.536697401E0,-2.870000005E-1,1.529999971E-1,-2.879999876E-1
4.541659554E0,-4.359999895E-1,1.529999971E-1,-3.019999862E-1
4.546621785E0,-4.790000021E-1,1.689999998E-1,-1.529999971E-1
4.551583939E0,-4.259999990E-1,4.899999872E-2,-3.200000152E-2
4.556546131E0,-3.880000114E-1,2.700000070E-2,7.400000095E-2
4.561508285E0,-4.410000145E-1,-9.999999776E-3,2.090000063E-1
4.566470659E0,-4.429999888E-1,3.299999982E-2,3.700000048E-1
4.571432582E0,-5.410000086E-1,-1.260000020E-1,4.370000064E-1
4.576394736E0,-5.099999905E-1,-1.049999967E-1,4.410000145E-1
4.581357107E0,-4.950000048E-1,-8.799999952E-2,4.939999878E-1
4.586319261E0,-4.289999902E-1,-8.799999952E-2,4.250000119E-1
4.591281415E0,-4.720000029E-1,-1.289999932E-1,2.750000060E-1
4.596243679E0,-3.790000081E-1,-6.400000304E-2,2.579999864E-1
4.601205756E0,-4.990000129E-1,-1.190000027E-1,5.299999937E-2
4.606167910E0,-4.040000141E-1,-1.749999970E-1,-1.490000039E-1
4.611130107E0,-4.440000057E-1,-1.209999993E-1,-1.490000039E-1
4.616092261E0,-4.250000119E-1,-9.700000286E-2,-2.820000052E-1
4.621054492E0,-3.109999895E-1,-1.379999965E-1,-3.490000069E-1
4.626016636E0,-3.779999912E-1,-1.500000060E-1,-3.359999955E-1
4.630978789E0,-4.990000129E-1,-2.709999979E-1,-2.549999952E-1
4.635940991E0,-3.759999871E-1,-1.679999977E-1,-1.759999990E-1
4.640903376E0,-4.410000145E-1,-2.739999890E-1,-9.600000083E-2
4.645865530E0,-4.670000076E-1,-3.249999881E-1,2.400000021E-2
4.650827713E0,-4.939999878E-1,-3.759999871E-1,7.699999958E-2
4.655789943E0,-3.600000143E-1,-3.219999969E-1,1.729999930E-1
4.660752020E0,-4.390000105E-1,-3.170000017E-1,2.660000026E-1
4.665714232E0,-4.259999990E-1,-3.420000076E-1,3.190000057E-1
4.670676309E0,-3.319999874E-1,-3.269999921E-1,3.600000143E-1
4.675638463E0,-2.870000005E-1,-2.000000030E-1,2.150000036E-1
4.680600670E0,-2.319999933E-1,-1.990000010E-1,2.560000122E-1
4.685562824E0,-5.700000003E-2,-1.330000013E-1,2.500000037E-2
4.690524977E0,8.999999613E-3,-1.080000028E-1,-1.000000047E-3
4.695487357E0,1.230000034E-1,4.199999943E-2,-2.800000012E-1
4.700449511E0,1.620000005E-1,9.300000221E-2,-3.600000143E-1
4.705411434E0,-4.100000113E-2,-1.700000092E-2,-4.410000145E-1
4.710373824E0,-2.899999917E-2,-3.200000152E-2,-4.539999962E-1
4.715335978E0,-1.780000031E-1,-1.700000092E-2,-4.329999983E-1
4.720298131E0,2.500000037E-2,6.400000304E-2,-3.109999895E-1
4.725260285E0,6.499999762E-2,1.099999994E-2,-2.300000042E-1
4.730222516E0,3.700000048E-2,6.700000167E-2,-2.720000148E-1
4.735184598E0,1.490000039E-1,8.600000292E-2,-2.129999995E-1
4.740146829E0,1.350000054E-1,7.400000095E-2,-1.190000027E-1
4.745108906E0,9.399999678E-2,3.700000048E-2,-1.480000019E-1
4.750071079E0,2.310000062E-1,9.499999881E-2,-1.369999945E-1
4.755033309E0,2.280000001E-1,1.469999999E-1,6.700000167E-2
4.759995468E0,2.259999961E-1,1.500000060E-1,1.469999999E-1
4.764957622E0,2.389999926E-1,5.900000036E-2,1.990000010E-1
4.769919776E0,1.700000018E-1,1.159999967E-1,2.249999940E-1
4.774882155E0,1.689999998E-1,-4.699999839E-2,2.849999964E-1
4.779844309E0,9.700000286E-2,-3.000000026E-3,3.249999881E-1
4.784806463E0,1.759999990E-1,-8.399999887E-2,2.969999909E-1
4.789768694E0,2.820000052E-1,-9.700000286E-2,2.280000001E-1
4.794730790E0,2.980000079E-1,-9.999999776E-3,1.829999983E-1
4.799693021E0,3.330000043E-1,1.600000076E-2,1.289999932E-1
4.804655098E0,3.019999862E-1,1.650000066E-1,1.420000046E-1
4.809617323E0,3.129999936E-1,5.499999970E-2,-3.299999982E-2
4.814579477E0,3.670000136E-1,3.400000185E-2,-1.129999980E-1
4.819541631E0,4.990000129E-1,1.280000061E-1,-1.940000057E-1
4.824503780E0,4.979999959E-1,1.829999983E-1,-3.170000017E-1
4.829466165E0,4.580000043E-1,2.919999957E-1,-3.709999919E-1
4.834428069E0,2.890000045E-1,2.540000081E-1,-3.869999945E-1
4.839390194E0,3.149999976E-1,2.259999961E-1,-4.140000045E-1
4.844352578E0,2.070000023E-1,2.020000070E-1,-4.009999931E-1
4.849314809E0,2.759999931E-1,1.500000060E-1,-1.580000073E-1
4.854276891E0,2.210000008E-1,7.699999958E-2,-1.560000032E-1
4.859239045E0,1.389999986E-1,6.599999964E-2,-1.439999938E-1
4.864201199E0,9.899999946E-2,7.000000030E-2,-7.800000161E-2
4.869163462E0,7.299999893E-2,3.299999982E-2,-1.749999970E-1
4.874125616E0,8.299999684E-2,1.600000076E-2,-2.000000030E-1
4.879087818E0,-1.200000010E-2,-3.500000015E-2,-2.840000093E-1
4.884049972E0,-9.499999881E-2,8.000000380E-3,-1.080000028E-1
4.889012126E0,-8.399999887E-2,-1.379999965E-1,-6.899999827E-2
4.893974319E0,-1.570000052E-1,-1.529999971E-1,6.000000052E-3
4.898936473E0,-1.589999944E-1,-1.230000034E-1,5.799999833E-2
4.903898871E0,-7.999999821E-2,-2.500000037E-2,4.300000146E-2
4.908861025E0,2.500000037E-2,-3.599999845E-2,2.329999954E-1
4.913823189E0,7.199999690E-2,-4.300000146E-2,1.059999987E-1
4.918785343E0,5.600000173E-2,-1.300000027E-2,1.589999944E-1
4.923747266E0,2.800000086E-2,2.000000095E-3,1.720000058E-1
4.928709615E0,1.909999996E-1,1.270000041E-1,-4.999999888E-3
4.933671846E0,1.600000076E-2,1.070000008E-1,-5.700000003E-2
4.938633928E0,-1.570000052E-1,-2.600000054E-2,-1.940000057E-1
4.943596159E0,-1.650000066E-1,-6.400000304E-2,-3.580000103E-1
4.948558313E0,-2.409999967E-1,-6.100000069E-2,-4.009999931E-1
4.953520385E0,-3.829999864E-1,-2.600000054E-2,-4.370000064E-1
4.958482616E0,-4.979999959E-1,3.299999982E-2,-5.619999766E-1
4.963444774E0,-5.080000162E-1,3.999999911E-2,-4.830000103E-1
4.968406928E0,-3.959999979E-1,-3.299999982E-2,-5.690000057E-1
4.973369096E0,-3.009999990E-1,-1.199999973E-1,-7.549999952E-1
4.978331481E0,-1.759999990E-1,-9.799999744E-2,-7.189999819E-1
4.983293404E0,-1.509999931E-1,7.000000216E-3,-6.840000153E-1
4.988255553E0,-6.100000069E-2,-3.500000015E-2,-6.219999790E-1
4.993217937E0,7.599999756E-2,-3.200000152E-2,-3.650000095E-1
4.998179860E0,-1.000000047E-3,-6.100000069E-2,-2.349999994E-1
5.003142245E0,-1.340000033E-1,-1.019999981E-1,-7.900000364E-2
5.008104399E0,-3.079999983E-1,-2.529999912E-1,6.300000101E-2
5.013066558E0,-4.120000005E-1,-2.610000074E-1,1.969999969E-1
5.018028712E0,-5.139999986E-1,-5.059999824E-1,2.989999950E-1
5.022990957E0,-6.290000081E-1,-6.299999952E-1,3.470000029E-1
5.027953034E0,-7.580000162E-1,-5.649999976E-1,3.819999993E-1
5.032915269E0,-8.159999847E-1,-4.889999926E-1,3.750000000E-1
5.037877423E0,-8.289999962E-1,-5.310000181E-1,3.819999993E-1
5.042839573E0,-8.059999943E-1,-4.819999933E-1,3.910000026E-1
5.047801727E0,-7.580000162E-1,-6.380000114E-1,5.239999890E-1
5.052763871E0,-5.759999752E-1,-4.589999914E-1,3.689999878E-1
5.057726024E0,-4.309999943E-1,-3.560000062E-1,3.779999912E-1
5.062688178E0,-2.060000002E-1,-2.430000007E-1,4.169999957E-1
5.067650337E0,-6.300000101E-2,-2.540000081E-1,4.970000088E-1
5.072612491E0,-9.200000018E-2,-2.129999995E-1,5.659999847E-1
5.077574856E0,-1.260000020E-1,-1.430000067E-1,6.460000277E-1
5.082536779E0,-1.729999930E-1,-2.259999961E-1,5.649999976E-1
5.087499163E0,-1.809999943E-1,-2.700000107E-1,7.429999709E-1
5.092461317E0,-3.179999888E-1,-2.820000052E-1,6.620000005E-1
5.097423548E0,-5.270000100E-1,-4.339999855E-1,5.270000100E-1
5.102385611E0,-5.189999938E-1,-4.539999962E-1,4.339999855E-1
5.107347842E0,-5.109999776E-1,-4.760000110E-1,4.510000050E-1
5.112310040E0,-3.810000122E-1,-4.259999990E-1,2.370000035E-1
5.117272116E0,-2.469999939E-1,-4.869999886E-1,-4.500000179E-2
5.122234347E0,-1.439999938E-1,-4.000000060E-1,-2.319999933E-1
5.127196482E0,1.480000019E-1,-2.590000033E-1,-3.510000110E-1
5.132158636E0,2.800000086E-2,-2.169999927E-1,-1.749999970E-1
5.137120790E0,4.999999888E-3,-1.679999977E-1,-1.589999944E-1
5.142082944E0,-7.299999893E-2,-3.089999855E-1,-8.900000155E-2
5.147045098E0,-4.199999943E-2,-3.810000122E-1,-7.400000095E-2
5.152007222E0,7.800000161E-2,-3.249999881E-1,-4.100000113E-2
5.156969376E0,2.339999974E-1,-1.480000019E-1,6.599999964E-2
5.161931530E0,3.089999855E-1,-1.089999974E-1,5.299999937E-2
5.166893915E0,1.949999928E-1,-1.099999994E-1,-5.989999771E-1
5.171856074E0,4.269999862E-1,-1.840000004E-1,-5.019999743E-1
5.176818227E0,5.910000205E-1,1.250000000E-1,-4.729999900E-1
5.181780458E0,6.280000210E-1,4.909999967E-1,-1.057000041E0
5.186742539E0,5.220000148E-1,4.230000079E-1,-1.531999946E0
5.191704693E0,3.310000002E-1,3.170000017E-1,-1.248000026E0
5.196666905E0,6.179999709E-1,2.840000093E-1,-4.760000110E-1
5.201628982E0,9.179999828E-1,1.019999981E-1,-9.899999946E-2
5.206591213E0,7.720000148E-1,1.600000076E-2,1.270000041E-1
5.211553337E0,4.990000129E-1,-1.780000031E-1,1.819999963E-1
5.216515491E0,2.049999982E-1,-2.230000049E-1,1.780000031E-1
5.221477645E0,-7.000000030E-2,-2.160000056E-1,2.010000050E-1
5.226440030E0,-3.310000002E-1,-2.520000041E-1,1.309999973E-1
5.231401944E0,-2.870000005E-1,-2.300000042E-1,1.490000039E-1
5.236364098E0,-2.469999939E-1,-2.790000141E-1,7.800000161E-2
5.241326482E0,-3.299999982E-2,-1.819999963E-1,1.589999944E-1
5.246288635E0,2.060000002E-1,-7.199999690E-2,2.259999961E-1
5.251250789E0,4.169999957E-1,0.000000000E0,1.689999998E-1
5.256212915E0,4.920000136E-1,1.099999994E-2,1.420000046E-1
5.261175069E0,4.900000095E-1,-4.000000190E-3,-4.600000009E-2
5.266137223E0,4.239999950E-1,8.600000292E-2,-2.630000114E-1
5.271099366E0,2.460000068E-1,6.400000304E-2,-4.979999959E-1
5.276061520E0,2.890000045E-1,8.500000089E-2,-7.269999981E-1
5.281023674E0,2.930000126E-1,2.189999968E-1,-9.710000157E-1
5.285985866E0,2.020000070E-1,2.450000048E-1,-1.174000025E0
5.290947943E0,3.560000062E-1,3.939999938E-1,-1.095000029E0
5.295910174E0,4.510000050E-1,4.320000112E-1,-9.850000143E-1
5.300872324E0,4.950000048E-1,5.339999795E-1,-1.001000047E0
5.305834477E0,7.030000091E-1,5.979999900E-1,-8.280000091E-1
5.310796631E0,6.850000024E-1,4.860000014E-1,-8.500000238E-1
5.315758760E0,6.029999852E-1,4.799999893E-1,-7.580000162E-1
5.320720914E0,5.400000215E-1,4.410000145E-1,-4.659999907E-1
5.325683088E0,4.499999881E-1,3.079999983E-1,-4.329999983E-1
5.330645472E0,3.619999886E-1,2.660000026E-1,-9.200000018E-2
5.335607405E0,3.100000024E-1,2.829999924E-1,4.899999872E-2
5.340569558E0,4.370000064E-1,2.460000068E-1,2.730000019E-1
5.345531943E0,4.679999948E-1,3.440000117E-1,4.690000117E-1
5.350493852E0,4.040000141E-1,2.649999857E-1,6.380000114E-1
5.355456237E0,6.100000143E-1,2.930000126E-1,6.999999881E-1
5.360418391E0,7.630000114E-1,3.600000143E-1,8.029999733E-1
5.365380328E0,9.160000086E-1,4.650000036E-1,9.079999924E-1
5.370342712E0,9.850000143E-1,4.469999969E-1,1.134999990E0
5.375304890E0,1.026000023E0,5.619999766E-1,1.254999995E0
5.380267044E0,1.133000016E0,5.540000200E-1,1.389000058E0
5.385229165E0,1.184000015E0,4.889999926E-1,1.442000031E0
5.390191396E0,1.126000047E0,5.440000296E-1,1.536999941E0
5.395153463E0,1.230000019E0,4.889999926E-1,1.577999949E0
5.400115616E0,1.240000010E0,5.260000229E-1,1.348000050E0
5.405077770E0,1.291000009E0,4.259999990E-1,1.268000007E0
5.410039953E0,1.424999952E0,5.270000100E-1,1.161999941E0
5.415002184E0,1.355999947E0,5.040000081E-1,9.760000110E-1
5.419964338E0,1.302000046E0,5.479999781E-1,7.900000215E-1
5.424926492E0,1.356999993E0,4.679999948E-1,5.509999990E-1
5.429888646E0,1.235000014E0,5.550000072E-1,3.199999928E-1
5.434850794E0,1.256999969E0,5.260000229E-1,9.600000083E-2
5.439812948E0,1.261000037E0,6.079999804E-1,-1.560000032E-1
5.444775102E0,1.348999977E0,5.680000186E-1,-3.129999936E-1
5.449737511E0,1.220999956E0,4.880000055E-1,-6.209999919E-1
5.454699434E0,8.640000224E-1,3.810000122E-1,-7.239999771E-1
5.459661818E0,6.690000296E-1,3.429999948E-1,-8.690000176E-1
5.464623756E0,5.009999871E-1,3.339999914E-1,-1.082000017E0
5.469585909E0,4.399999976E-1,2.290000021E-1,-1.090999961E0
5.474548322E0,4.300000072E-1,2.599999905E-1,-1.100000024E0
5.479510245E0,5.389999747E-1,2.919999957E-1,-1.054999948E0
5.484472640E0,6.729999781E-1,2.829999924E-1,-1.090999961E0
5.489434794E0,3.680000007E-1,1.909999996E-1,-8.410000205E-1
5.494396947E0,6.200000048E-1,3.440000117E-1,-6.999999881E-1
5.499359135E0,7.490000129E-1,2.930000126E-1,-1.008999944E0
5.504321289E0,9.480000138E-1,1.860000044E-1,-1.098999977E0
5.509283520E0,9.720000029E-1,3.389999866E-1,-1.297999978E0
5.514245612E0,7.919999957E-1,3.149999976E-1,-1.429000020E0
5.519207766E0,5.180000067E-1,2.249999940E-1,-1.669999957E0
5.524169992E0,4.609999955E-1,1.909999996E-1,-1.830000043E0
5.529132068E0,4.569999874E-1,1.459999979E-1,-1.774000049E0
5.534094222E0,3.970000148E-1,1.720000058E-1,-1.514000058E0
5.539056376E0,4.990000129E-1,1.580000073E-1,-1.187999964E0
5.544018530E0,6.119999886E-1,1.739999950E-1,-9.570000172E-1
5.548980776E0,7.390000224E-1,2.029999942E-1,-6.990000010E-1
5.553942930E0,7.289999723E-1,1.909999996E-1,-5.230000019E-1
5.558905084E0,7.469999790E-1,2.329999954E-1,-4.289999902E-1
5.563867232E0,4.519999921E-1,8.399999887E-2,-3.199999928E-1
5.568829617E0,2.800000012E-1,2.800000086E-2,-3.190000057E-1
5.573791540E0,1.759999990E-1,1.099999994E-2,-3.319999874E-1
5.578753925E0,-6.400000304E-2,-6.000000052E-3,-5.609999895E-1
5.583716093E0,-1.299999952E-1,-3.900000080E-2,-5.720000267E-1
5.588678016E0,-1.560000032E-1,-9.899999946E-2,-7.319999933E-1
5.593640414E0,-2.939999998E-1,-3.700000048E-2,-7.839999795E-1
5.598602337E0,-4.469999969E-1,-8.299999684E-2,-8.220000267E-1
5.603564703E0,-4.659999907E-1,-5.999999866E-2,-6.970000267E-1
5.608526857E0,-3.499999940E-1,-1.410000026E-1,-6.230000257E-1
5.613488809E0,-1.780000031E-1,-4.800000042E-2,-4.309999943E-1
5.618450963E0,-1.439999938E-1,-3.400000185E-2,-1.860000044E-1
5.623413347E0,-1.379999965E-1,-3.299999982E-2,3.099999949E-2
5.628375511E0,-4.040000141E-1,-7.299999893E-2,1.529999971E-1
5.633337665E0,-4.799999893E-1,-4.399999976E-2,2.070000023E-1
5.638299852E0,-4.909999967E-1,-1.260000020E-1,4.120000005E-1
5.643262006E0,-5.720000267E-1,-4.600000009E-2,6.719999909E-1
5.648224083E0,-1.679000020E0,-1.098000050E0,6.740000248E-1
5.653186305E0,-1.715000033E0,-5.180000067E-1,1.167999983E0
5.658148381E0,-9.840000272E-1,-1.049999967E-1,1.419000030E0
5.663110612E0,-2.840000093E-1,2.500000000E-1,1.753999949E0
5.668072766E0,-2.999999933E-2,3.179999888E-1,1.735999942E0
5.673034843E0,-8.500000089E-2,2.890000045E-1,1.485999942E0
5.677996997E0,-3.379999995E-1,2.870000005E-1,1.210000038E0
5.682959228E0,-5.879999995E-1,2.169999927E-1,8.650000095E-1
5.687921271E0,-8.339999914E-1,1.899999976E-1,6.700000167E-1
5.692883424E0,-1.050999999E0,2.730000019E-1,4.189999998E-1
5.697845655E0,-1.021000028E0,1.000000015E-1,2.349999994E-1
5.702807794E0,-9.629999995E-1,9.300000221E-2,1.309999973E-1
5.707769948E0,-7.820000052E-1,-3.600000143E-1,-4.359999895E-1
5.712732082E0,-1.172000051E0,1.410000026E-1,5.600000173E-2
5.717694159E0,-1.276999950E0,3.600000143E-1,4.930000007E-1
5.722656377E0,-9.340000153E-1,2.680000067E-1,9.020000100E-1
5.727618761E0,-5.199999809E-1,2.989999950E-1,1.269000053E0
5.732580712E0,-2.529999912E-1,4.110000134E-1,1.486999989E0
5.737542866E0,-2.680000067E-1,4.140000045E-1,1.419000030E0
5.742505020E0,-5.099999905E-1,4.970000088E-1,1.282999992E0
5.747467193E0,-3.810000122E-1,4.850000143E-1,1.065000057E0
5.752429347E0,-7.100000232E-2,5.400000215E-1,7.919999957E-1
5.757391731E0,-3.019999862E-1,5.009999871E-1,7.910000086E-1
5.762353639E0,-6.779999733E-1,4.100000113E-2,8.709999919E-1
5.767316024E0,-1.521999955E0,-3.059999943E-1,1.097000003E0
5.772278207E0,-2.078000069E0,-5.130000114E-1,1.266999960E0
5.777240130E0,-2.039000034E0,-1.009999990E0,1.453999996E0
5.782202270E0,-1.189000010E0,-7.469999790E-1,1.725000024E0
5.787164654E0,-5.030000210E-1,-4.050000012E-1,1.998000026E0
5.792126822E0,-2.199999988E-1,2.800000086E-2,1.944000006E0
5.797088976E0,-7.800000161E-2,9.300000221E-2,1.618000031E0
5.802050899E0,1.700000092E-2,4.800000042E-2,1.169999957E0
5.807013246E0,-9.899999946E-2,-2.300000004E-2,8.579999804E-1
5.811975400E0,-2.569999993E-1,6.599999964E-2,5.730000138E-1
5.816937554E0,-4.729999900E-1,-4.699999839E-2,5.600000024E-1
5.821899702E0,-7.730000019E-1,-2.150000036E-1,5.210000277E-1
5.826861856E0,-7.760000229E-1,-3.759999871E-1,5.839999914E-1
5.831824058E0,-8.389999866E-1,-5.120000243E-1,6.370000243E-1
5.836786212E0,-9.210000038E-1,-5.970000029E-1,7.059999704E-1
5.841748375E0,-1.014000058E0,-6.269999743E-1,8.700000048E-1
5.846710529E0,-1.075999975E0,-5.920000076E-1,7.469999790E-1
5.851672703E0,-1.108999968E0,-6.299999952E-1,9.490000010E-1
5.856634856E0,-1.016000032E0,-7.149999738E-1,8.949999809E-1
5.861597010E0,-9.660000205E-1,-8.019999862E-1,9.250000119E-1
5.866559192E0,-8.970000148E-1,-7.630000114E-1,6.919999719E-1
5.871521423E0,-6.940000057E-1,-6.970000267E-1,7.200000286E-1
5.876483500E0,-3.770000041E-1,-4.350000024E-1,6.299999952E-1
5.881445654E0,-1.140000001E-1,-3.529999852E-1,2.680000067E-1
5.886407885E0,1.500000060E-1,-2.049999982E-1,-3.599999845E-2
5.891369972E0,2.939999998E-1,-3.030000031E-1,-4.639999866E-1
5.896332126E0,4.000000060E-1,-1.019999981E-1,-1.027999997E0
5.901294362E0,3.980000019E-1,9.799999744E-2,-1.483000040E0
5.906256516E0,5.870000124E-1,9.799999744E-2,-1.789999962E0
5.911218597E0,4.609999955E-1,9.899999946E-2,-2.042000055E0
5.916180828E0,5.130000114E-1,1.169999987E-1,-2.052000046E0
5.921142997E0,6.050000191E-1,8.399999887E-2,-1.871999979E0
5.926105150E0,6.690000296E-1,5.499999970E-2,-1.694000006E0
5.931067294E0,7.080000043E-1,1.000000047E-3,-1.312999964E0
5.936029371E0,7.480000257E-1,4.500000179E-2,-1.110000014E0
5.940991602E0,7.760000229E-1,1.319999993E-1,-9.769999981E-1
5.945953742E0,8.590000272E-1,8.399999887E-2,-6.399999857E-1
5.950915819E0,8.750000000E-1,2.010000050E-1,-7.799999714E-1
5.955878050E0,9.720000029E-1,1.550000012E-1,-7.440000176E-1
5.960840164E0,1.054999948E0,1.630000025E-1,-8.029999733E-1
5.965802318E0,1.042999983E0,2.259999961E-1,-6.980000138E-1
5.970764472E0,9.909999967E-1,1.669999957E-1,-8.389999866E-1
5.975726857E0,1.294999957E0,4.350000024E-1,-9.250000119E-1
5.980689011E0,1.557999969E0,5.540000200E-1,-8.349999785E-1
5.985650925E0,1.481999993E0,6.179999709E-1,-7.170000076E-1
5.990613079E0,1.172999978E0,6.549999714E-1,-8.309999704E-1
5.995575232E0,1.243999958E0,6.919999719E-1,-9.990000129E-1
6.000537376E0,1.095999956E0,4.970000088E-1,-1.072000027E0
6.005499530E0,6.620000005E-1,3.440000117E-1,-9.269999862E-1
6.010461684E0,2.140000015E-1,9.600000083E-2,-5.099999905E-1
6.015424079E0,-1.389999986E-1,-8.200000226E-2,-3.919999897E-1
6.020386232E0,-3.569999933E-1,-3.170000017E-1,-1.519999951E-1
6.025348122E0,-1.250000000E-1,-3.740000129E-1,1.280000061E-1
6.030310275E0,-1.800000072E-1,-2.960000038E-1,4.639999866E-1
6.035272660E0,7.599999756E-2,-2.049999982E-1,7.189999819E-1
6.040234583E0,1.969999969E-1,-9.000000358E-2,7.559999824E-1
6.045196737E0,2.090000063E-1,-1.700000092E-2,7.540000081E-1
6.050159098E0,5.700000003E-2,1.200000010E-2,4.129999876E-1
6.055121021E0,-9.499999881E-2,2.700000070E-2,1.669999957E-1
6.060083175E0,-1.000000015E-1,6.700000167E-2,-1.309999973E-1
6.065045549E0,-1.360000074E-1,2.400000021E-2,-5.109999776E-1
6.070007472E0,-1.340000033E-1,7.400000095E-2,-6.589999795E-1
6.074969857E0,-9.399999678E-2,9.700000286E-2,-8.330000043E-1
6.079932011E0,-5.799999833E-2,-3.000000026E-3,-7.080000043E-1
6.084893909E0,-2.409999967E-1,-1.309999973E-1,-6.790000200E-1
6.089856293E0,-2.070000023E-1,-1.089999974E-1,-4.720000029E-1
6.094818447E0,-3.249999881E-1,-3.600000143E-1,-2.919999957E-1
6.099780399E0,-4.300000072E-1,-3.529999852E-1,-3.980000019E-1
6.104742553E0,-3.210000098E-1,-1.829999983E-1,-1.770000011E-1
6.109704943E0,-1.589999944E-1,-1.770000011E-1,-2.689999938E-1
6.114667097E0,-1.889999956E-1,-1.309999973E-1,-3.339999914E-1
6.119629251E0,-3.019999862E-1,-2.489999980E-1,-3.429999948E-1
6.124591361E0,-4.690000117E-1,-1.899999976E-1,-4.609999955E-1
6.129553285E0,-6.470000148E-1,-3.770000041E-1,-7.699999809E-1
6.134515649E0,-7.419999838E-1,-4.399999976E-1,-9.430000186E-1
6.139477803E0,-7.269999981E-1,-5.299999714E-1,-8.840000033E-1
6.144439726E0,-8.899999857E-1,-5.249999762E-1,-6.489999890E-1
6.149402111E0,-7.689999938E-1,-5.199999809E-1,-9.309999943E-1
6.154364265E0,-4.580000043E-1,-3.109999895E-1,-9.539999962E-1
6.159326188E0,1.099999994E-1,-1.949999928E-1,-8.140000105E-1
6.164288582E0,4.650000036E-1,-1.659999937E-1,-9.649999738E-1
6.169250736E0,3.860000074E-1,-1.309999973E-1,-4.300000072E-1
6.174212875E0,1.580000073E-1,-1.209999993E-1,1.999999955E-2
6.179175029E0,2.119999975E-1,-2.090000063E-1,1.870000064E-1
6.184137183E0,1.829999983E-1,-1.389999986E-1,7.800000161E-2
6.189099106E0,4.199999943E-2,-2.169999927E-1,-1.879999936E-1
6.194061490E0,-1.940000057E-1,-3.659999967E-1,-2.759999931E-1
6.199023429E0,-4.850000143E-1,-4.219999909E-1,-7.170000076E-1
6.203985582E0,-4.779999852E-1,-4.099999964E-1,-1.090000033E0
6.208947967E0,-4.990000129E-1,-4.259999990E-1,-1.625000000E0
6.213910125E0,-3.479999900E-1,-3.750000000E-1,-1.832999945E0
6.218872279E0,-2.829999924E-1,-2.809999883E-1,-1.945999980E0
6.223834433E0,-2.119999975E-1,-3.599999845E-2,-1.853999972E0
6.228796586E0,-7.999999821E-2,-1.289999932E-1,-1.544999957E0
6.233758755E0,-2.129999995E-1,-2.469999939E-1,-1.046000004E0
6.238720909E0,-4.460000098E-1,-6.489999890E-1,-8.610000014E-1
6.243683063E0,-4.339999855E-1,-5.220000148E-1,-2.000000030E-1
6.248645217E0,-3.260000050E-1,-4.420000017E-1,-3.000000026E-3
6.253607351E0,-3.000000119E-1,-3.770000041E-1,1.539999992E-1
6.258569274E0,-2.000000030E-1,-2.290000021E-1,2.569999993E-1
6.263531428E0,-1.599999964E-1,-2.730000019E-1,2.099999934E-1
6.268493817E0,-9.600000083E-2,-1.499999966E-2,1.469999999E-1
6.273455740E0,-9.099999815E-2,-1.920000017E-1,1.499999966E-2
6.278417894E0,-2.649999857E-1,-1.480000019E-1,-1.459999979E-1
6.283380304E0,-6.200000048E-1,-3.490000069E-1,-2.259999961E-1
6.288342458E0,-4.250000119E-1,-2.300000042E-1,-1.620000005E-1
6.293304357E0,-1.930000037E-1,-1.360000074E-1,-4.500000179E-2
6.298266742E0,3.599999845E-2,1.630000025E-1,2.210000008E-1
6.303228890E0,1.250000000E-1,3.280000091E-1,3.379999995E-1
6.308191044E0,8.900000155E-2,2.469999939E-1,5.519999862E-1
6.313153198E0,2.549999952E-1,2.870000005E-1,5.210000277E-1
6.318115372E0,4.169999957E-1,5.440000296E-1,4.230000079E-1
6.323077526E0,1.026000023E0,7.030000091E-1,2.800000086E-2
6.328039679E0,1.440999985E0,9.829999804E-1,-4.059999883E-1
6.333001833E0,1.445999980E0,1.222000003E0,-6.359999776E-1
6.337963977E0,1.343999982E0,1.202000022E0,-8.529999852E-1
6.342926131E0,1.258000016E0,1.141999960E0,-9.200000167E-1
6.347888049E0,1.202999949E0,1.001000047E0,-9.350000024E-1
6.352850434E0,1.121000051E0,9.449999928E-1,-1.072000027E0
6.357812588E0,1.149999976E0,9.309999943E-1,-1.156999946E0
6.362774761E0,1.149999976E0,8.909999728E-1,-1.118999958E0
6.367736915E0,1.026000023E0,8.249999881E-1,-1.000000000E0
6.372699068E0,1.008999944E0,7.879999876E-1,-6.349999905E-1
6.377661222E0,1.016999960E0,5.730000138E-1,-2.569999993E-1
6.382623362E0,8.339999914E-1,3.729999959E-1,1.749999970E-1
6.387585516E0,8.299999833E-1,4.850000143E-1,7.039999962E-1
6.392547439E0,9.380000234E-1,2.820000052E-1,1.138000011E0
6.397509819E0,1.256999969E0,3.910000026E-1,1.312000036E0
6.402471973E0,1.256999969E0,5.230000019E-1,1.322999954E0
6.407433896E0,1.251999974E0,6.119999886E-1,8.309999704E-1
6.412396049E0,1.337000012E0,7.789999843E-1,4.609999955E-1
6.417358434E0,1.399000049E0,7.820000052E-1,2.800000012E-1
6.422320347E0,1.300999999E0,6.909999847E-1,4.500000179E-2
6.427282501E0,1.108000040E0,6.409999728E-1,8.200000226E-2
6.432244891E0,8.709999919E-1,4.699999988E-1,-1.809999943E-1
6.437207045E0,7.129999995E-1,4.769999981E-1,1.679999977E-1
6.442168982E0,6.179999709E-1,6.079999804E-1,5.040000081E-1
6.447131366E0,4.090000093E-1,5.230000019E-1,7.179999948E-1
6.452093294E0,4.280000031E-1,6.010000110E-1,1.110000014E0
6.457055448E0,4.679999948E-1,6.090000272E-1,1.177000046E0
6.462017833E0,6.409999728E-1,8.059999943E-1,1.299999952E0
6.466979741E0,6.869999766E-1,6.729999781E-1,1.519999981E0
6.471941895E0,6.090000272E-1,5.789999962E-1,1.442999959E0
6.476904049E0,2.280000001E-1,5.770000219E-1,1.802999973E0
6.481866207E0,-4.500000179E-2,5.320000052E-1,1.919999957E0
6.486828361E0,-1.019999981E-1,3.330000043E-1,1.860999942E0
6.491790750E0,-1.049999967E-1,2.140000015E-1,1.572999954E0
6.496752673E0,-3.900000080E-2,2.700000107E-1,1.366999984E0
6.501714818E0,-9.499999881E-2,1.330000013E-1,1.175999999E0
6.506676972E0,-1.200000010E-2,2.399999946E-1,7.260000110E-1
6.511639049E0,2.230000049E-1,2.649999857E-1,4.250000119E-1
6.516601279E0,2.700000070E-2,4.140000045E-1,5.600000173E-2
6.521563678E0,1.200000010E-2,3.989999890E-1,-1.780000031E-1
6.526525601E0,-6.400000304E-2,1.819999963E-1,7.000000216E-3
6.531487765E0,-2.070000023E-1,1.570000052E-1,0.000000000E0
6.536449919E0,-3.459999859E-1,-2.999999933E-2,7.500000298E-2
6.541411996E0,-2.380000055E-1,2.029999942E-1,-6.800000370E-2
6.546374241E0,2.080000043E-1,3.829999864E-1,-1.720000058E-1
6.551336394E0,3.659999967E-1,3.600000143E-1,-1.239999980E-1
6.556298548E0,-1.200000010E-2,-4.999999888E-3,1.010000035E-1
6.561260702E0,-7.299999893E-2,1.209999993E-1,3.799999952E-1
6.566222856E0,-8.100000024E-2,6.599999964E-2,7.599999905E-1
6.571184976E0,-1.300000027E-2,-1.799999923E-2,8.970000148E-1
6.576147130E0,2.500000037E-2,-7.599999756E-2,1.090000033E0
6.581109347E0,-1.230000034E-1,-6.800000370E-2,1.006999969E0
6.586071424E0,-4.399999976E-2,8.999999613E-3,9.150000215E-1
6.591033654E0,-6.199999899E-2,-2.600000054E-2,7.300000191E-1
6.595995731E0,3.099999949E-2,-4.699999839E-2,6.669999957E-1
6.600957885E0,3.500000015E-2,3.400000185E-2,4.210000038E-1
6.605920034E0,-9.600000083E-2,8.100000024E-2,2.619999945E-1
6.610882265E0,-1.580000073E-1,2.080000043E-1,1.560000032E-1
6.615844332E0,-5.299999937E-2,9.000000358E-2,-2.070000023E-1
6.620806563E0,3.999999911E-2,1.360000074E-1,-6.679999828E-1
6.625768721E0,-2.000000095E-3,1.410000026E-1,-1.087000012E0
6.630730798E0,-3.190000057E-1,-2.000000095E-3,-1.519999981E0
6.635692952E0,-6.520000100E-1,-7.599999756E-2,-1.748999953E0
6.640655106E0,-7.839999795E-1,-1.209999993E-1,-1.569000006E0
6.645617260E0,-7.429999709E-1,-2.870000005E-1,-1.375000000E0
6.650579409E0,-6.790000200E-1,-1.099999994E-1,-1.031000018E0
6.655541563E0,-6.320000291E-1,-2.179999948E-1,-7.829999924E-1
6.660503716E0,-5.059999824E-1,-2.020000070E-1,-4.239999950E-1
6.665465846E0,-4.510000050E-1,-2.140000015E-1,-1.739999950E-1
6.670427769E0,-4.250000119E-1,-2.399999946E-1,-7.199999690E-2
6.675390154E0,-3.470000029E-1,-3.499999940E-1,3.170000017E-1
6.680352284E0,-1.630000025E-1,-2.419999987E-1,5.049999952E-1
6.685314438E0,-3.639999926E-1,-4.909999967E-1,7.910000086E-1
6.690276597E0,-3.199999928E-1,-3.880000114E-1,1.092000008E0
6.695238750E0,-4.120000005E-1,-6.010000110E-1,1.299000025E0
6.700200904E0,-5.000000000E-1,-4.620000124E-1,1.220999956E0
6.705163058E0,-6.800000072E-1,-4.609999955E-1,8.180000186E-1
6.710125212E0,-6.660000086E-1,-4.900000095E-1,3.319999874E-1
6.715087438E0,-5.550000072E-1,-4.519999921E-1,-7.000000030E-2
6.720049284E0,-4.959999919E-1,-2.770000100E-1,-2.689999938E-1
6.725011650E0,-3.409999907E-1,-2.230000049E-1,-4.959999919E-1
6.729973573E0,-2.119999975E-1,-1.550000012E-1,-8.069999814E-1
6.734935727E0,-1.650000066E-1,-9.899999946E-2,-6.669999957E-1
6.739898120E0,-1.040000021E-1,9.499999881E-2,-8.569999933E-1
6.744860043E0,2.400000021E-2,5.900000036E-2,-7.870000005E-1
6.749822197E0,2.049999982E-1,1.340000033E-1,-5.950000286E-1
6.754784351E0,1.389999986E-1,8.699999750E-2,-3.070000112E-1
6.759746736E0,1.809999943E-1,8.299999684E-2,1.019999981E-1
6.764708635E0,9.899999946E-2,9.300000221E-2,2.949999869E-1
6.769671019E0,4.999999888E-3,8.000000380E-3,3.779999912E-1
6.774633188E0,-2.500000000E-1,-1.040000021E-1,4.079999924E-1
6.779595111E0,-4.460000098E-1,-2.409999967E-1,3.970000148E-1
6.784557279E0,-4.370000064E-1,-9.399999678E-2,6.140000224E-1
6.789519356E0,-2.370000035E-1,-1.679999977E-1,3.420000076E-1
6.794481587E0,-1.570000052E-1,1.120000035E-1,5.499999970E-2
6.799443722E0,-1.700000092E-2,6.700000167E-2,-1.519999951E-1
6.804405876E0,-6.599999964E-2,9.000000358E-2,-3.750000000E-1
6.809368043E0,7.900000364E-2,2.790000141E-1,-3.819999993E-1
6.814330197E0,2.000000030E-1,2.509999871E-1,-2.969999909E-1
6.819292274E0,-7.530000210E-1,-1.959999949E-1,-5.669999719E-1
6.824254428E0,-2.230000049E-1,3.230000138E-1,-4.020000100E-1
6.829216659E0,3.009999990E-1,4.900000095E-1,-6.159999967E-1
6.834178818E0,3.989999890E-1,3.580000103E-1,-3.790000081E-1
6.839140895E0,3.429999948E-1,3.339999914E-1,-3.030000031E-1
6.844103150E0,1.199999973E-1,3.639999926E-1,7.000000216E-3
6.849065227E0,1.819999963E-1,4.070000052E-1,-1.030000001E-1
6.854027400E0,4.219999909E-1,4.219999909E-1,-1.180000007E-1
6.858989554E0,5.419999957E-1,4.799999893E-1,-3.400000036E-1
6.863951728E0,6.240000129E-1,5.649999976E-1,-6.169999838E-1
6.868913882E0,5.730000138E-1,5.019999743E-1,-9.929999709E-1
6.873876036E0,5.649999976E-1,5.640000105E-1,-1.480999947E0
6.878838204E0,8.009999990E-1,8.309999704E-1,-1.886999965E0
6.883800357E0,1.034000039E0,8.970000148E-1,-2.157000065E0
6.888762511E0,1.391000032E0,9.520000219E-1,-2.239000082E0
6.893724420E0,1.710999966E0,1.174999952E0,-2.190999985E0
6.898686574E0,1.917000055E0,1.212000012E0,-2.150000095E0
6.903648954E0,1.804000020E0,1.103999972E0,-1.955000043E0
6.908610877E0,1.644000053E0,1.080000043E0,-1.929000020E0
6.913573262E0,1.682999969E0,1.113999963E0,-1.774000049E0
6.918535434E0,1.863000035E0,1.177000046E0,-1.662999988E0
6.923497357E0,1.952999949E0,1.241999984E0,-1.516000032E0
6.928459511E0,1.978000045E0,1.172000051E0,-1.398000002E0
6.933421622E0,2.088999987E0,1.376000047E0,-1.529000044E0
6.938383776E0,2.272000074E0,1.212000012E0,-1.361999989E0
6.943345930E0,2.007999897E0,1.131000042E0,-1.128000021E0
6.948308084E0,1.991999984E0,1.090999961E0,-8.949999809E-1
6.953270238E0,1.911999941E0,9.419999719E-1,-7.179999948E-1
6.958232391E0,1.656999946E0,8.069999814E-1,-4.339999855E-1
6.963194545E0,1.254999995E0,4.970000088E-1,9.399999678E-2
6.968156699E0,9.350000024E-1,1.990000010E-1,5.690000057E-1
6.973118838E0,4.670000076E-1,9.200000018E-2,1.207000017E0
6.978080992E0,1.490000039E-1,-1.499999966E-2,1.738000035E0
6.983043074E0,-5.999999866E-2,-7.299999893E-2,1.930999994E0
6.988005228E0,-1.800000072E-1,-1.630000025E-1,1.899000049E0
6.992967382E0,-4.810000062E-1,-1.759999990E-1,1.710000038E0
6.997929540E0,-3.370000124E-1,-7.199999690E-2,1.348999977E0
7.002891694E0,-1.669999957E-1,0.000000000E0,9.499999881E-1
7.007853848E0,-2.590000033E-1,-9.300000221E-2,5.130000114E-1
7.012815992E0,-4.180000126E-1,-3.900000080E-2,9.200000018E-2
7.017778146E0,-4.020000100E-1,1.770000011E-1,-3.950000107E-1
7.022740324E0,-2.060000002E-1,3.810000122E-1,-8.989999890E-1
7.027702478E0,1.700000092E-2,4.099999964E-1,-1.103999972E0
7.032664631E0,2.849999964E-1,6.060000062E-1,-1.299000025E0
7.037626785E0,5.170000196E-1,7.239999771E-1,-1.103000045E0
7.042588924E0,7.950000167E-1,9.150000215E-1,-1.075000048E0
7.047551078E0,9.129999876E-1,9.049999714E-1,-9.409999847E-1
7.052513010E0,9.829999804E-1,9.950000048E-1,-9.480000138E-1
7.057475164E0,9.869999886E-1,1.087000012E0,-6.019999981E-1
7.062437318E0,8.320000172E-1,9.369999766E-1,-2.189999968E-1
7.067399472E0,5.419999957E-1,7.469999790E-1,-3.999999911E-2
7.072361626E0,3.700000048E-2,4.909999967E-1,1.790000051E-1
7.077323751E0,-6.230000257E-1,8.299999684E-2,8.780000210E-1
7.082285905E0,-1.220999956E0,-3.540000021E-1,1.376999974E0
7.087248069E0,-1.638000011E0,-5.640000105E-1,1.963999987E0
7.092210223E0,-1.616000056E0,-7.120000124E-1,2.460999966E0
7.097172377E0,-1.539999962E0,-7.030000091E-1,2.326999903E0
7.102134526E0,-1.368000031E0,-5.659999847E-1,2.283999920E0
7.107096680E0,-1.059000015E0,-6.280000210E-1,2.058000088E0
7.112058856E0,-2.174000025E0,-1.582999945E0,1.197999954E0
7.117021010E0,-2.013999939E0,-1.138000011E0,1.430999994E0
7.121983183E0,-1.569000006E0,-6.539999843E-1,8.080000281E-1
7.126945260E0,-8.399999738E-1,-3.889999986E-1,-1.260000020E-1
7.131907414E0,-6.330000162E-1,-4.939999878E-1,-1.319999993E-1
7.136869568E0,-8.920000196E-1,-8.600000143E-1,-1.300000027E-2
7.141831717E0,-1.406000018E0,-9.269999862E-1,-2.899999917E-1
7.146793870E0,-1.437999964E0,-7.739999890E-1,-2.700000107E-1
7.151756024E0,-1.072999954E0,-6.489999890E-1,-4.950000048E-1
7.156718188E0,-7.099999785E-1,-5.080000162E-1,-1.006999969E0
7.161680342E0,-6.460000277E-1,-5.849999785E-1,-1.205000043E0
7.166642458E0,-6.899999976E-1,-3.860000074E-1,-1.351999998E0
7.171604612E0,-8.119999766E-1,-4.009999931E-1,-1.447000027E0
7.176566535E0,-6.719999909E-1,-2.210000008E-1,-1.519000053E0
7.181528703E0,-3.000000119E-1,-1.319999993E-1,-1.606999993E0
7.186490857E0,-2.199999988E-2,1.909999996E-1,-1.315999985E0
7.191452996E0,1.190000027E-1,3.549999893E-1,-1.164000034E0
7.196415381E0,1.650000066E-1,3.420000076E-1,-1.052000046E0
7.201377179E0,9.799999744E-2,3.700000048E-1,-8.719999790E-1
7.206339333E0,3.260000050E-1,4.799999893E-1,-9.350000024E-1
7.211301564E0,3.050000072E-1,6.019999981E-1,-8.450000286E-1
7.216263641E0,3.459999859E-1,7.099999785E-1,-7.810000181E-1
7.221225770E0,1.490000039E-1,6.000000238E-1,-5.230000019E-1
7.226188000E0,2.189999968E-1,4.339999855E-1,-5.619999766E-1
7.231150140E0,1.049999967E-1,3.910000026E-1,-3.249999881E-1
7.236112217E0,-1.080000028E-1,4.020000100E-1,-8.699999750E-2
7.241074457E0,-3.999999911E-2,3.729999959E-1,2.339999974E-1
7.246036534E0,1.770000011E-1,3.429999948E-1,5.830000043E-1
7.250998703E0,4.900000095E-1,3.810000122E-1,7.160000205E-1
7.255960857E0,6.420000196E-1,5.680000186E-1,8.080000281E-1
7.260923019E0,6.370000243E-1,5.479999781E-1,7.760000229E-1
7.265885173E0,7.580000162E-1,4.720000029E-1,7.450000048E-1
7.270847327E0,7.210000157E-1,5.569999814E-1,6.169999838E-1
7.275809241E0,8.220000267E-1,5.180000067E-1,3.540000021E-1
7.280771395E0,5.979999900E-1,6.549999714E-1,2.199999988E-2
7.285733717E0,2.930000126E-1,5.070000291E-1,-1.040000021E-1
7.290695640E0,1.239999980E-1,4.410000145E-1,-2.039999962E-1
7.295657794E0,1.190000027E-1,2.529999912E-1,-2.370000035E-1
7.300619938E0,1.700000092E-2,1.199999973E-1,-1.049999967E-1
7.305582015E0,-1.150000021E-1,1.239999980E-1,-1.089999974E-1
7.310544245E0,-8.699999750E-2,1.010000035E-1,2.150000036E-1
7.315506404E0,-7.500000298E-2,-7.199999690E-2,4.339999855E-1
7.320468481E0,9.799999744E-2,-2.899999917E-2,5.310000181E-1
7.325430712E0,-1.000000047E-3,-9.700000286E-2,7.260000110E-1
7.330392832E0,-2.099999972E-2,-1.700000092E-2,9.100000262E-1
7.335354909E0,-1.270000041E-1,-1.580000073E-1,1.248999953E0
7.340317049E0,-3.429999948E-1,-3.700000048E-1,1.590999961E0
7.345279202E0,-3.440000117E-1,-4.909999967E-1,1.939000010E0
7.350241356E0,-5.080000162E-1,-5.730000138E-1,1.988999963E0
7.355203524E0,-5.700000003E-2,-3.729999959E-1,1.483000040E0
7.360165678E0,3.939999938E-1,1.499999966E-2,7.739999890E-1
7.365127601E0,7.239999771E-1,2.779999971E-1,-2.029999942E-1
7.370089746E0,1.202000022E0,5.669999719E-1,-9.330000281E-1
7.375052131E0,1.325000048E0,5.149999857E-1,-1.292000055E0
7.380014073E0,1.231999993E0,5.180000067E-1,-1.475999951E0
7.384976226E0,1.006000042E0,5.509999990E-1,-1.812000036E0
7.389938380E0,8.119999766E-1,4.499999881E-1,-2.003000021E0
7.394900544E0,6.209999919E-1,3.529999852E-1,-2.223999977E0
7.399862698E0,5.559999943E-1,3.680000007E-1,-2.137000084E0
7.404824842E0,3.580000103E-1,3.039999902E-1,-2.026999950E0
7.409786919E0,2.610000074E-1,3.950000107E-1,-2.032999992E0
7.414749150E0,2.759999931E-1,3.129999936E-1,-1.921000004E0
7.419711317E0,1.169999987E-1,2.339999974E-1,-1.664000034E0
7.424673394E0,5.499999970E-2,3.070000112E-1,-1.695999980E0
7.429635548E0,1.049999967E-1,2.319999933E-1,-1.773000002E0
7.434597784E0,6.100000069E-2,1.879999936E-1,-1.690000057E0
7.439559861E0,3.860000074E-1,2.960000038E-1,-1.514000058E0
7.444522015E0,2.910000086E-1,1.599999964E-1,-1.546000004E0
7.449483915E0,7.599999756E-2,2.160000056E-1,-1.348999977E0
7.454446069E0,-1.200000010E-2,1.640000045E-1,-1.360000014E0
7.459408453E0,1.570000052E-1,1.420000046E-1,-1.276999950E0
7.464370395E0,2.329999954E-1,-9.600000083E-2,-1.197000027E0
7.469332548E0,9.099999815E-2,3.200000152E-2,-1.021000028E0
7.474294943E0,2.000000095E-3,1.350000054E-1,-6.409999728E-1
7.479257097E0,3.479999900E-1,2.240000069E-1,-5.870000124E-1
7.484219020E0,-5.499999970E-2,-1.759999990E-1,-6.269999743E-1
7.489181179E0,-1.870000064E-1,-1.570000052E-1,-3.939999938E-1
7.494143333E0,-3.729999959E-1,-2.319999933E-1,-1.889999956E-1
7.499105549E0,-2.310000062E-1,-3.079999983E-1,-1.749999970E-1
7.504067702E0,-1.799999923E-2,-1.600000076E-2,-2.310000062E-1
7.509029856E0,-1.979999989E-1,-2.680000067E-1,-1.940000057E-1
7.513991923E0,-2.249999940E-1,-3.019999862E-1,-4.309999943E-1
7.518954077E0,-1.140000001E-1,-2.259999961E-1,-4.539999962E-1
7.523916246E0,2.600000054E-2,-2.160000056E-1,-5.609999895E-1
7.528878400E0,1.959999949E-1,9.399999678E-2,-5.749999881E-1
7.533840597E0,-4.370000064E-1,-3.569999933E-1,-4.530000091E-1
7.538802520E0,-5.970000029E-1,-2.370000035E-1,-5.600000024E-1
7.543764904E0,-8.569999933E-1,-3.479999900E-1,-7.189999819E-1
7.548727063E0,-3.720000088E-1,-2.300000004E-2,-5.339999795E-1
7.553689217E0,-6.510000229E-1,-3.790000081E-1,-1.580000073E-1
7.558651159E0,-1.099999994E-1,-5.299999937E-2,9.200000018E-2
7.563613313E0,3.249999881E-1,1.780000031E-1,-1.369999945E-1
7.568575467E0,7.429999709E-1,5.059999824E-1,-5.230000019E-1
7.573537621E0,1.276000023E0,6.850000024E-1,-1.065000057E0
7.578499775E0,2.059000015E0,1.409999967E0,-1.391999960E0
7.583461851E0,2.953999996E0,1.822999954E0,-1.641000032E0
7.588424005E0,2.855000019E0,1.608999968E0,-1.468000054E0
7.593386169E0,2.526999950E0,1.694000006E0,-9.399999976E-1
7.598348323E0,2.607000113E0,1.628000021E0,1.860000044E-1
7.603310477E0,3.507999897E0,1.738999963E0,1.651999950E0
7.608272621E0,1.763000011E0,7.860000134E-1,4.501999855E0
7.613234544E0,2.657000065E0,2.513000011E0,3.486000061E0
7.618196698E0,3.210999966E0,2.585000038E0,1.879999995E0
7.623159082E0,8.849999905E-1,1.493999958E0,1.338000059E0
7.628121236E0,2.700000107E-1,7.659999728E-1,-5.299999937E-2
7.633083149E0,-5.180000067E-1,6.600000262E-1,-1.190000057E0
7.638045534E0,-2.088999987E0,6.650000215E-1,-1.621000051E0
7.643007476E0,-1.514000058E0,-1.720000058E-1,-1.865000010E0
7.647969630E0,-1.378999949E0,-5.830000043E-1,-1.707000017E0
7.652931784E0,-1.445000052E0,-2.680000067E-1,-1.027999997E0
7.657893861E0,-1.231999993E0,-2.919999957E-1,-3.199999928E-1
7.662856091E0,-9.110000134E-1,-4.079999924E-1,-6.199999899E-2
7.667818260E0,-7.670000196E-1,-6.060000062E-1,2.349999994E-1
7.672780337E0,-3.770000041E-1,-4.620000124E-1,6.269999743E-1
7.677742519E0,-1.070000008E-1,-2.500000000E-1,9.900000095E-1
7.682704673E0,-7.599999756E-2,-4.180000126E-1,1.172000051E0
7.687666596E0,-1.459999979E-1,-6.269999743E-1,9.679999948E-1
7.692628707E0,-5.490000248E-1,-8.619999886E-1,5.130000114E-1
7.697591092E0,-1.013000011E0,-1.080999970E0,1.360000074E-1
7.702553034E0,-1.771999955E0,-1.174999952E0,-2.870000005E-1
7.707515187E0,-2.176000118E0,-1.307000041E0,-6.039999723E-1
7.712477313E0,-1.325999975E0,-9.860000014E-1,-7.870000005E-1
7.717439390E0,-4.359999895E-1,-7.310000062E-1,-1.406000018E0
7.722401606E0,-6.309999824E-1,-3.240000010E-1,-1.457000017E0
7.727363760E0,2.540000081E-1,1.230000034E-1,-1.537999988E0
7.732325847E0,1.223999977E0,2.860000134E-1,-1.550999999E0
7.737288078E0,1.618999958E0,8.299999833E-1,-1.371999979E0
7.742250231E0,4.109000206E0,5.550000072E-1,-4.140000045E-1
7.747212293E0,4.296999931E0,9.179999828E-1,4.370000064E-1
7.752174447E0,2.492000103E0,2.052999973E0,1.600000024E0
7.757136601E0,1.445000052E0,2.039000034E0,1.537999988E0
7.762098524E0,3.070000112E-1,1.230999947E0,7.139999866E-1
7.767060909E0,-6.460000277E-1,4.889999926E-1,3.709999919E-1
7.772023063E0,-1.088000059E0,-1.019999981E-1,2.899999917E-1
7.776984986E0,-2.397000074E0,-2.029999942E-1,2.399999946E-1
7.781947159E0,-2.838999987E0,-3.700000048E-1,9.600000083E-2
7.786909236E0,-2.306999922E0,-9.430000186E-1,4.899999872E-2
7.791871413E0,-2.269000053E0,-1.228000045E0,3.019999862E-1
7.796833644E0,-2.424999952E0,-1.115000010E0,5.139999986E-1
7.801795798E0,-2.565999985E0,-1.082000017E0,7.779999971E-1
7.806757866E0,-2.187000036E0,-1.143000007E0,8.100000024E-1
7.811720020E0,-1.871000051E0,-1.202000022E0,6.200000048E-1
7.816682183E0,-1.932999969E0,-9.869999886E-1,3.869999945E-1
7.821644337E0,-1.812999964E0,-8.650000095E-1,4.779999852E-1
7.826606490E0,-1.758999944E0,-7.549999952E-1,2.680000067E-1
7.831568635E0,-2.137000084E0,-1.144999981E0,9.399999976E-1
7.836530558E0,-5.429999828E-1,-1.166000009E0,6.280000210E-1
7.841492697E0,-1.070000008E-1,-7.229999900E-1,2.419999987E-1
7.846454851E0,-6.570000052E-1,-2.660000026E-1,-1.580000073E-1
7.851416981E0,-1.884999990E0,9.399999678E-2,-1.212000012E0
7.856379135E0,-2.627000093E0,2.099999972E-2,-2.346999884E0
7.861341212E0,-2.750000000E0,-5.590000153E-1,-2.720999956E0
7.866303381E0,-2.638000011E0,-1.319000006E0,-1.815999985E0
7.871265611E0,-2.460999966E0,-1.794000030E0,-6.159999967E-1
7.876227711E0,-2.826999903E0,-1.802000046E0,-2.360000014E-1
7.881189865E0,-3.280999899E0,-1.791000009E0,5.999999866E-2
7.886152019E0,-3.216000080E0,-1.820000052E0,3.289999962E-1
7.891114174E0,-2.891999960E0,-1.860000014E0,8.709999919E-1
7.896076097E0,-2.572999954E0,-1.860999942E0,1.567000031E0
7.901038251E0,-1.495000005E0,-1.782999992E0,2.115999937E0
7.906000654E0,-9.330000281E-1,-1.529999971E0,2.190999985E0
7.910962578E0,-1.282999992E0,-1.000000000E0,1.985000014E0
7.915924750E0,-1.973000050E0,-8.830000162E-1,1.932000041E0
7.920886904E0,-1.452000022E0,-1.222000003E0,1.324000001E0
7.925848986E0,-1.516000032E0,-1.483999968E0,3.510000110E-1
7.930811217E0,-1.827000022E0,-1.491000056E0,-5.370000005E-1
7.935773294E0,-2.085000038E0,-1.633999944E0,-1.098000050E0
7.940735448E0,-2.388999939E0,-1.722000003E0,-1.657999992E0
7.945697602E0,-2.450000048E0,-2.049999952E0,-2.108999968E0
7.950659751E0,-2.158999920E0,-2.223000050E0,-1.962000012E0
7.955621904E0,-2.096999884E0,-2.404000044E0,-1.613000035E0
7.960584058E0,-1.883000016E0,-2.089999914E0,-1.087000012E0
7.965546217E0,-1.638000011E0,-1.838000059E0,-7.409999967E-1
7.970508135E0,-1.327000022E0,-1.559000015E0,-6.110000014E-1
7.975470289E0,-8.519999981E-1,-1.222000003E0,2.542000055E0
7.980432366E0,-4.079999924E-1,-1.128999949E0,3.099999949E-2
7.985394582E0,-2.479999959E-1,-1.034999967E0,-2.730000019E-1
7.990356736E0,-2.109999955E-1,-8.880000114E-1,-3.580000103E-1
7.995318813E0,9.600000083E-2,-1.013000011E0,-5.090000033E-1
8.000280981E0,5.630000234E-1,-1.085999966E0,-3.179999888E-1
8.005243135E0,1.080000043E0,-8.050000072E-1,-2.349999994E-1
8.010205294E0,1.468999982E0,-3.779999912E-1,-3.999999911E-2
8.015167217E0,1.773000002E0,-1.560000032E-1,4.999999888E-3
8.020129602E0,2.292000055E0,6.100000069E-2,-3.000000119E-1
8.025091741E0,2.766999960E0,3.050000072E-1,-4.000000060E-1
8.030053664E0,3.236999989E0,7.509999871E-1,-7.710000277E-1
8.035015828E0,3.651000023E0,1.212000012E0,-1.197000027E0
8.039977905E0,4.131000042E0,1.590999961E0,-1.472000003E0
8.044940135E0,4.598999977E0,1.851999998E0,-1.965000033E0
8.049902303E0,5.040999889E0,2.032999992E0,-2.403000116E0
8.054864380E0,5.241000175E0,2.276000023E0,-2.966000080E0
8.059826534E0,5.065000057E0,2.131000042E0,-2.983999968E0
8.064788669E0,4.802000046E0,1.736999989E0,-2.446000099E0
8.069750592E0,4.339000225E0,1.335999966E0,-2.193000078E0
8.074712741E0,4.110000134E0,1.159000039E0,-2.131999969E0
8.079675125E0,4.830999851E0,1.202000022E0,-1.210000038E0
8.084637279E0,6.776000023E0,1.807000041E0,1.889999986E0
8.089599173E0,8.274000168E0,2.542999983E0,4.489999771E0
8.094561327E0,9.782999992E0,3.572000027E0,6.901000023E0
8.099523404E0,9.520999908E0,4.135000229E0,8.128999710E0
8.104485558E0,9.425000191E0,3.862999916E0,7.791999817E0
8.109447712E0,7.583000183E0,3.381999969E0,6.409999847E0
8.114409856E0,4.633999825E0,2.532999992E0,4.361999989E0
8.119372010E0,2.155999899E0,1.524999976E0,2.315000057E0
8.124334163E0,1.108000040E0,6.650000215E-1,1.115000010E0
8.129296087E0,6.629999876E-1,5.000000075E-2,1.195000052E0
8.134258221E0,1.459999979E-1,-8.220000267E-1,2.786999941E0
8.139220375E0,-5.860000253E-1,-1.261000037E0,3.793999910E0
8.144182524E0,-1.463000059E0,-1.679999948E0,4.025000095E0
8.149144678E0,-1.652999997E0,-2.105999947E0,3.533999920E0
8.154106798E0,-1.263000011E0,-2.104000092E0,2.430999994E0
8.159068952E0,-6.470000148E-1,-1.549999952E0,9.470000267E-1
8.164031029E0,-6.199999899E-2,-9.580000043E-1,1.169999987E-1
8.168993188E0,3.289999962E-1,-3.519999981E-1,-4.000000060E-1
8.173955341E0,5.550000072E-1,6.199999899E-2,-7.400000095E-1
8.178917495E0,7.950000167E-1,2.060000002E-1,-7.670000196E-1
8.183879649E0,1.075999975E0,9.200000018E-2,-4.120000005E-1
8.188841572E0,9.240000248E-1,-3.299999982E-2,4.860000014E-1
8.193803737E0,1.065000057E0,2.210000008E-1,9.079999924E-1
8.198765891E0,1.621999979E0,5.419999957E-1,9.359999895E-1
8.203727963E0,1.546000004E0,8.619999886E-1,9.100000262E-1
8.208690194E0,1.531000018E0,1.167999983E0,6.660000086E-1
8.213652371E0,2.776999950E0,8.750000000E-1,4.490000010E-1
8.218614448E0,2.479000092E0,1.046000004E0,7.000000030E-2
8.223576602E0,1.769000053E0,1.273000002E0,-3.079999983E-1
8.228538737E0,1.376000047E0,1.677000046E0,-5.239999890E-1
8.233500660E0,1.258000016E0,1.851999998E0,-7.929999828E-1
8.238463045E0,1.587000012E0,1.633999944E0,-6.539999843E-1
8.243424972E0,1.766999960E0,1.756999969E0,-1.100000024E0
8.248387126E0,1.687000036E0,1.894999981E0,-1.572999954E0
8.253349266E0,1.769999981E0,2.006999969E0,-1.501000047E0
8.258311419E0,1.756000042E0,1.345999956E0,-3.400000036E-1
8.263273496E0,1.932999969E0,8.090000153E-1,-2.300000004E-2
8.268235727E0,1.726999998E0,6.259999871E-1,-8.699999750E-2
8.273197881E0,8.389999866E-1,5.780000091E-1,-4.909999967E-1
8.278160001E0,3.170000017E-1,-1.099999994E-1,1.659999937E-1
8.283122155E0,2.600000054E-2,-8.529999852E-1,3.750000000E-1
8.288084309E0,1.110000014E-1,-1.651000023E0,4.210000038E-1
8.293046228E0,4.510000050E-1,-1.769999981E0,-4.180000126E-1
8.298008382E0,5.139999986E-1,-1.521999955E0,-8.780000210E-1
8.302970770E0,4.359999895E-1,-1.026000023E0,-8.740000129E-1
8.307932693E0,2.949999869E-1,-7.879999876E-1,-8.040000200E-1
8.312894756E0,2.500000037E-2,-6.169999838E-1,-3.249999881E-1
8.317856910E0,1.829999983E-1,-2.680000067E-1,-3.249999881E-1
8.322819064E0,1.330000013E-1,1.300000027E-2,1.000000047E-3
8.327781242E0,4.059999883E-1,9.200000018E-2,3.819999993E-1
8.332743396E0,7.049999833E-1,3.880000114E-1,3.129999936E-1
8.337705319E0,8.930000067E-1,6.560000181E-1,5.299999714E-1
8.342667511E0,9.720000029E-1,7.879999876E-1,6.240000129E-1
8.347629665E0,1.200000048E0,6.320000291E-1,5.830000043E-1
8.352591818E0,1.496999979E0,3.519999981E-1,4.869999886E-1
8.357553972E0,1.712000012E0,1.669999957E-1,2.409999967E-1
8.362516126E0,1.927999973E0,1.459999979E-1,3.899999857E-1
8.367478203E0,2.391000032E0,3.680000007E-1,4.440000057E-1
8.372440338E0,2.365999937E0,9.309999943E-1,9.890000224E-1
8.377402261E0,2.355999947E0,1.792999983E0,2.282999992E0
8.382364415E0,2.578000069E0,2.842999935E0,2.882999897E0
8.387326793E0,3.260999918E0,3.071000099E0,1.603000045E0
8.392288717E0,3.698999882E0,1.988000035E0,-3.569999933E-1
8.397250870E0,2.536000013E0,9.490000010E-1,-9.539999962E-1
8.402212982E0,1.802999973E0,5.389999747E-1,-1.483999968E0
8.407175136E0,1.521999955E0,-2.070000023E-1,-1.521999955E0
8.412137198E0,1.268000007E0,-9.520000219E-1,-1.547000051E0
8.417099352E0,1.189000010E0,-1.190999985E0,-1.817999959E0
8.422061540E0,7.009999752E-1,-1.523000002E0,-2.401999950E0
8.427023694E0,7.699999958E-2,-1.333999991E0,-2.046000004E0
8.431985852E0,-7.080000043E-1,-1.046000004E0,-1.621999979E0
8.436947775E0,-1.345000029E0,-6.610000134E-1,-1.238999963E0
8.441909928E0,-1.883999944E0,-3.009999990E-1,-6.240000129E-1
8.446872101E0,-2.299000025E0,2.500000000E-1,3.099999949E-2
8.451834178E0,-2.642999887E0,3.519999981E-1,7.409999967E-1
8.456796332E0,-2.470000029E0,5.210000277E-1,1.111999989E0
8.461758563E0,-2.651000023E0,6.069999933E-1,1.223999977E0
8.466720640E0,-2.819999933E0,8.650000095E-1,7.500000000E-1
8.471682789E0,-4.311999798E0,3.310000002E-1,1.669999957E-1
8.476644943E0,-3.733999968E0,1.350000054E-1,1.069000006E0
8.481607091E0,-3.523000002E0,2.240000069E-1,1.072000027E0
8.486569014E0,-3.779999971E0,1.190000027E-1,6.250000000E-1
8.491531386E0,-3.496000051E0,1.879999936E-1,8.200000226E-2
8.496493232E0,-3.078999996E0,-3.000000026E-3,-3.900000080E-2
8.501455463E0,-3.101000071E0,2.779999971E-1,-1.459999979E-1
8.506417630E0,-2.987999916E0,9.549999833E-1,-2.300000004E-2
8.511379707E0,-2.776999950E0,1.167999983E0,-4.029999971E-1
8.516341861E0,-2.713000059E0,1.095999956E0,-9.869999886E-1
8.521304025E0,-2.453000069E0,1.011000037E0,-1.189000010E0
8.526265948E0,-2.051000118E0,1.024999976E0,-1.184999943E0
8.531228083E0,-1.422999978E0,1.300999999E0,-1.261999965E0
8.536190467E0,-7.070000172E-1,1.350000024E0,-1.406000018E0
8.541152404E0,2.000000095E-3,1.292999983E0,-1.794000030E0
8.546114481E0,6.489999890E-1,1.281999946E0,-1.784999967E0
8.551076707E0,1.411999941E0,1.439000010E0,-1.735000014E0
8.556038861E0,2.015000105E0,1.506000042E0,-1.424000025E0
8.561000938E0,2.338000059E0,1.440999985E0,-1.179999948E0
8.565963116E0,2.572000027E0,1.203999996E0,-1.125000000E0
8.570925039E0,2.700000048E0,9.020000100E-1,-5.239999890E-1
8.575887423E0,2.464999914E0,6.579999924E-1,8.410000205E-1
8.580849572E0,2.447999954E0,1.819999963E-1,2.056999922E0
8.585811495E0,2.644999981E0,-3.350000083E-1,1.980000019E0
8.590773649E0,2.872999907E0,-7.500000000E-1,2.023000002E0
8.595735851E0,2.970000029E0,-9.509999752E-1,2.147000074E0
8.600697928E0,3.140000105E0,-9.670000076E-1,2.269000053E0
8.605660102E0,3.361000061E0,-9.729999900E-1,2.104000092E0
8.610622256E0,3.453000069E0,-9.689999819E-1,1.501000047E0
8.615584409E0,3.638999939E0,-6.679999828E-1,6.809999943E-1
8.620546553E0,3.427999973E0,-3.400000036E-1,-3.160000145E-1
8.625508476E0,2.779000044E0,-4.059999883E-1,-2.660000026E-1
8.630470529E0,2.703000069E0,-3.599999845E-2,2.610000074E-1
8.635432760E0,2.401999950E0,1.190000027E-1,6.800000370E-2
8.640394837E0,2.392999887E0,1.940000057E-1,1.369999945E-1
8.645356991E0,1.873000026E0,3.000000119E-1,8.500000089E-2
8.650319145E0,1.452999949E0,3.810000122E-1,3.619999886E-1
8.655281299E0,1.172999978E0,4.629999995E-1,3.959999979E-1
8.660243222E0,8.790000081E-1,6.679999828E-1,5.929999948E-1
8.665205371E0,5.299999714E-1,8.590000272E-1,7.910000086E-1
8.670167524E0,3.670000136E-1,1.060999990E0,1.233000040E0
8.675129678E0,-9.700000286E-2,8.790000081E-1,1.143000007E0
8.680091832E0,-2.409999967E-1,6.529999971E-1,7.929999828E-1
8.685053986E0,-3.249999881E-1,5.049999952E-1,-5.130000114E-1
8.690016073E0,-3.499999940E-1,2.569999993E-1,-1.070000008E-1
8.694978227E0,-2.750000060E-1,8.799999952E-2,-3.709999919E-1
8.699940381E0,-5.479999781E-1,-1.000000047E-3,-2.840000093E-1
8.704902284E0,-7.699999809E-1,-9.300000221E-2,-3.759999871E-1
8.709864438E0,-1.008000016E0,-2.269999981E-1,-4.410000145E-1
8.714826592E0,-1.437000036E0,-1.969999969E-1,-6.430000067E-1
8.719788750E0,-1.500000000E0,-2.230000049E-1,-4.499999881E-1
8.724750827E0,-1.276999950E0,-1.539999992E-1,8.200000226E-2
8.729712967E0,-1.424999952E0,-1.140000001E-1,-7.999999821E-2
8.734675121E0,-1.019000053E0,3.589999974E-1,3.939999938E-1
8.739637275E0,-9.010000229E-1,4.090000093E-1,-8.299999684E-2
8.744599404E0,-6.470000148E-1,3.089999855E-1,-2.080000043E-1
8.749561327E0,-6.359999776E-1,3.050000072E-1,-3.720000088E-1
8.754523481E0,-7.599999905E-1,1.800000072E-1,-4.550000131E-1
8.759485635E0,-1.480000019E-1,8.579999804E-1,-1.190999985E0
8.764447711E0,1.807999969E0,2.121999979E0,-2.049999952E0
8.769409837E0,1.261999965E0,1.371000051E0,-4.671000004E0
8.774371760E0,1.080000028E-1,9.779999852E-1,-4.421000004E0
8.779333914E0,8.209999800E-1,1.014000058E0,-3.216000080E0
8.784296298E0,1.633999944E0,-5.090000033E-1,-2.036999941E0
8.789258221E0,1.078999996E0,-1.006999969E0,-1.713000059E0
8.794220298E0,5.400000140E-2,-9.139999747E-1,-4.189999998E-1
8.799182515E0,1.455000043E0,-7.100000232E-2,6.019999981E-1
8.804144669E0,1.781000018E0,-8.600000292E-2,6.579999924E-1
8.809106731E0,1.258999944E0,-3.479999900E-1,-3.219999969E-1
8.814068885E0,1.143000007E0,-4.189999998E-1,-2.079999924E0
8.819031039E0,9.700000286E-1,-5.699999928E-1,-2.354000092E0
8.823992947E0,1.243999958E0,-4.990000129E-1,-1.743999958E0
8.828955101E0,1.315000057E0,-5.199999809E-1,-1.391000032E0
8.833917183E0,7.379999757E-1,-2.099999934E-1,-1.077000022E0
8.838879337E0,6.409999728E-1,3.199999928E-1,-1.340000033E-1
8.843841540E0,7.919999957E-1,5.960000157E-1,5.230000019E-1
8.848803617E0,1.011999965E0,5.989999771E-1,1.603999972E0
8.853765771E0,8.230000138E-1,5.329999924E-1,2.480000019E0
8.858727924E0,6.050000191E-1,5.180000067E-1,3.124000072E0
8.863689847E0,4.779999852E-1,3.770000041E-1,3.003999949E0
8.868652005E0,4.699999988E-1,1.209999993E-1,2.650000095E0
8.873614159E0,5.239999890E-1,-1.110000014E-1,2.157000065E0
8.878576332E0,3.700000048E-1,-1.729999930E-1,1.595000029E0
8.883538409E0,-3.099999949E-2,-4.280000031E-1,1.263000011E0
8.888500558E0,-4.059999883E-1,-6.039999723E-1,1.338999987E0
8.893462481E0,-8.870000243E-1,-9.459999800E-1,1.498000026E0
8.898424635E0,-7.239999771E-1,-8.119999766E-1,1.970999956E0
8.903386813E0,-4.609999955E-1,-1.640000045E-1,1.940999985E0
8.908348967E0,-6.150000095E-1,2.090000063E-1,2.309000015E0
8.913311029E0,-3.720000088E-1,-1.410000026E-1,2.062999964E0
8.918273260E0,1.030000001E-1,-1.270000041E-1,2.335000038E0
8.923235337E0,-2.360000014E-1,-2.399999946E-1,2.539000034E0
8.928197491E0,-7.940000296E-1,-5.070000291E-1,3.002000093E0
8.933159645E0,1.749999970E-1,2.010000050E-1,3.328000069E0
8.938121799E0,-1.180000007E-1,4.020000100E-1,3.667999983E0
8.943083775E0,-5.320000052E-1,4.070000052E-1,3.953999996E0
8.948045929E0,-1.054999948E0,1.469999999E-1,3.164000034E0
8.953008054E0,-8.709999919E-1,6.579999924E-1,2.101000071E0
8.957970207E0,-9.639999866E-1,1.490000010E0,-6.119999886E-1
8.962932322E0,5.200000107E-2,2.551000118E0,-3.015000105E0
8.967894476E0,1.360000074E-1,2.469000101E0,-5.256999969E0
8.972856385E0,8.539999723E-1,2.447000027E0,-6.723000050E0
8.977818539E0,1.243999958E0,2.325999975E0,-7.413000107E0
8.982780693E0,7.480000257E-1,1.822000027E0,-7.761000156E0
8.987742852E0,1.006000042E0,9.089999795E-1,-6.622000217E0
8.992705006E0,5.479999781E-1,-8.889999986E-1,-4.389999866E0
8.997667112E0,4.259999990E-1,-1.779999971E0,-1.731999993E0
9.002629265E0,4.050000012E-1,-1.904000044E0,-2.430000007E-1
9.007591414E0,-2.969999909E-1,-2.040999889E0,7.820000052E-1
9.012553568E0,-2.119999975E-1,-1.661999941E0,1.261999965E0
9.017515491E0,-3.210000098E-1,-1.519000053E0,1.223000050E0
9.022477649E0,-8.529999852E-1,-1.432000041E0,1.824000001E0
9.027439726E0,-5.389999747E-1,-8.870000243E-1,1.838999987E0
9.032401904E0,-5.370000005E-1,-1.555999994E0,2.154999971E0
9.037364058E0,2.860000134E-1,-1.532999992E0,3.111000061E0
9.042325991E0,1.128999949E0,-1.610000014E0,4.532999992E0
9.047288376E0,8.450000286E-1,-1.378000021E0,4.482999802E0
9.052250265E0,1.651999950E0,-1.588999987E0,5.618999958E0
9.057212418E0,7.519999743E-1,-6.230000257E-1,4.151000023E0
9.062174495E0,1.917999983E0,-1.450000048E0,5.268000126E0
9.067136707E0,9.300000072E-1,-1.848999977E0,4.026999950E0
9.072098784E0,3.252000093E0,-2.173000097E0,5.157000065E0
9.077060707E0,2.325000048E0,-1.097000003E0,2.515000105E0
9.082023092E0,1.008000016E0,-2.829999924E-1,2.993999958E0
9.086985015E0,4.329999983E-1,8.550000191E-1,3.476000071E0
9.091947169E0,1.453999996E0,1.322000027E0,5.388000011E0
9.096909323E0,9.580000043E-1,1.824000001E0,3.239000082E0
9.101871409E0,9.029999971E-1,1.922000051E0,3.062999964E0
9.106833562E0,3.088000059E0,2.599999905E0,7.731999874E0
9.111795721E0,-9.570000172E-1,1.949000001E0,5.418000221E0
9.116757644E0,-2.263000011E0,2.625999928E0,9.800000191E-1
9.121719774E0,-1.718999982E0,4.138000011E0,-4.799999893E-1
9.126681928E0,-2.255000114E0,3.328000069E0,-2.150000095E0
9.131644020E0,-1.274999976E0,1.669999957E0,-2.638000011E0
9.136606174E0,-1.580999970E0,5.440000296E-1,-4.514999866E0
9.141568308E0,-1.210000038E0,-3.070000112E-1,-5.561999798E0
9.146530231E0,-3.479999900E-1,-7.850000262E-1,-6.579999924E0
9.151492385E0,1.239999980E-1,-1.118000031E0,-7.540999889E0
9.156454539E0,3.790000081E-1,-9.710000157E-1,-7.447999954E0
9.161416615E0,-8.600000292E-2,-7.149999738E-1,-7.895999908E0
9.166378827E0,3.700000048E-1,-6.069999933E-1,-7.346000195E0
9.171340673E0,5.180000067E-1,-5.000000000E-1,-6.796000004E0
9.176302827E0,6.140000224E-1,-3.950000107E-1,-6.150000095E0
9.181265188E0,8.989999890E-1,-6.759999990E-1,-4.755000114E0
9.186227111E0,9.229999781E-1,-8.280000091E-1,-3.403000116E0
9.191189275E0,9.729999900E-1,-7.149999738E-1,-2.487999916E0
9.196151429E0,9.639999866E-1,-6.399999857E-1,-1.588000059E0
9.201113554E0,1.154999971E0,-1.550000012E-1,-1.166000009E0
9.206075631E0,8.100000024E-1,3.039999902E-1,-1.521999955E0
9.211037559E0,5.000000000E-1,7.099999785E-1,-1.758000016E0
9.215999943E0,1.580000073E-1,1.008999944E0,-2.158999920E0
9.220961866E0,1.829999983E-1,1.202000022E0,-2.273999929E0
9.225924000E0,2.649999857E-1,1.521999955E0,-2.321000099E0
9.230886077E0,1.459999979E-1,1.031000018E0,-2.829999924E0
9.235848231E0,4.250000119E-1,1.144999981E0,-2.670000076E0
9.240810409E0,-2.590000033E-1,1.317999959E0,-1.570000052E0
9.245772332E0,8.999999613E-3,1.876000047E0,-9.459999800E-1
9.250734467E0,-7.649999857E-1,1.439000010E0,-1.468999982E0
9.255696621E0,-4.350000024E-1,1.123999953E0,-7.599999756E-2
9.260658774E0,-4.609999955E-1,1.120000035E-1,6.400000304E-2
9.265620856E0,-2.790000141E-1,-5.149999857E-1,7.089999914E-1
9.270583010E0,-2.700000107E-1,-6.129999757E-1,9.610000253E-1
9.275545130E0,-3.819999993E-1,-1.037999988E0,8.600000143E-1
9.280507053E0,1.350000054E-1,-8.650000095E-1,1.317999959E0
9.285469202E0,-3.339999914E-1,-7.189999819E-1,2.078000069E0
9.290431356E0,-1.304999948E0,-8.889999986E-1,2.267999887E0
9.295393433E0,-1.245000005E0,-3.950000107E-1,2.428999901E0
9.300355578E0,-1.108000040E0,-3.030000031E-1,2.220000029E0
9.305317501E0,-1.031999946E0,-5.400000140E-2,1.233999968E0
9.310279885E0,-8.349999785E-1,4.350000024E-1,7.369999886E-1
9.315242048E0,-2.310000062E-1,5.680000186E-1,-1.000000015E-1
9.320203971E0,1.850000024E-1,5.920000076E-1,-3.240000010E-1
9.325166063E0,8.790000081E-1,4.939999878E-1,-1.780000031E-1
9.330128294E0,7.910000086E-1,4.500000179E-2,3.100000024E-1
9.335090448E0,5.590000153E-1,-3.059999943E-1,-1.659999937E-1
9.340052539E0,1.230999947E0,-2.479999959E-1,-2.189999968E-1
9.345014693E0,1.429999948E0,-4.749999940E-1,-5.019999743E-1
9.349976847E0,1.919999957E0,-4.120000005E-1,-8.249999881E-1
9.354938770E0,2.346999884E0,-5.099999905E-1,-7.639999986E-1
9.359900847E0,2.556999922E0,-5.249999762E-1,-7.300000191E-1
9.364863006E0,2.482000113E0,-5.230000019E-1,-7.639999986E-1
9.369825159E0,2.542999983E0,-5.469999909E-1,-9.480000138E-1
9.374787313E0,2.644999981E0,-7.459999919E-1,-8.719999790E-1
9.379749236E0,2.444999933E0,-8.209999800E-1,-7.699999809E-1
9.384711390E0,2.038000107E0,-1.720000058E-1,-8.719999790E-1
9.389673544E0,8.130000234E-1,9.530000091E-1,-1.261000037E0
9.394635616E0,-1.026000023E0,1.769000053E0,-1.881999969E0
9.399597770E0,-1.970000029E0,1.904999971E0,-1.004999995E0
9.404559919E0,1.889999956E-1,1.797000051E0,6.735000134E0
9.409522073E0,-1.580999970E0,2.800000012E-1,2.555999994E0
9.414483996E0,-1.149000049E0,1.710000038E-1,2.920000076E0
9.419446149E0,-1.476999998E0,2.960000038E-1,3.075000048E0
9.424408231E0,-2.349999905E0,-4.999999888E-3,2.726000071E0
9.429370385E0,-2.112999916E0,-3.790000081E-1,2.515000105E0
9.434332539E0,-3.289999962E-1,-4.550000131E-1,2.907000065E0
9.439294457E0,1.343000054E0,-8.740000129E-1,3.069999933E0
9.444256611E0,1.243000031E0,-1.131000042E0,2.799999952E0
9.449218765E0,1.120000005E0,-8.999999762E-1,2.490999937E0
9.454180857E0,8.470000029E-1,-6.320000291E-1,1.664000034E0
9.459143011E0,6.409999728E-1,-8.100000024E-2,1.026999950E0
9.464105145E0,-3.519999981E-1,4.810000062E-1,8.949999809E-1
9.469067298E0,-6.499999762E-1,7.570000291E-1,2.233999968E0
9.474029232E0,-2.300000042E-1,1.248000026E0,1.529999971E-1
9.478991385E0,-1.284000039E0,4.920000136E-1,-4.490000010E-1
9.483953447E0,-1.393000007E0,4.950000048E-1,-7.540000081E-1
9.488915601E0,-1.715999961E0,1.589999944E-1,-9.629999995E-1
9.493877755E0,-1.539999962E0,-9.300000221E-2,-9.779999852E-1
9.498839683E0,-1.613999963E0,-2.339999974E-1,-7.800000161E-2
9.503801837E0,-1.019999981E-1,1.029000044E0,4.699999988E-1
9.508763991E0,-7.070000172E-1,-8.000000380E-3,2.579999864E-1
9.513726034E0,-2.890000045E-1,-9.300000221E-2,7.409999967E-1
9.518688188E0,-1.729999930E-1,1.319999993E-1,1.088000059E0
9.523650328E0,-6.050000191E-1,1.089999974E-1,1.610000014E0
9.528612251E0,-3.680000007E-1,4.609999955E-1,1.093000054E0
9.533574404E0,-5.500000119E-1,9.010000229E-1,1.906999946E0
9.538536558E0,-1.238999963E0,4.250000119E-1,9.359999895E-1
9.543498712E0,-1.141000032E0,8.429999948E-1,7.540000081E-1
9.548460789E0,-4.709999859E-1,1.570000052E-1,5.170000196E-1
9.553422938E0,7.860000134E-1,1.335999966E0,7.319999933E-1
9.558384861E0,-4.999999888E-3,-4.399999976E-2,2.119999886E0
9.563347015E0,6.489999890E-1,-1.870000064E-1,2.160000086E0
9.568309169E0,1.726999998E0,2.509999871E-1,1.875000000E0
9.573271246E0,1.439000010E0,6.039999723E-1,1.370000005E0
9.578233376E0,1.350999951E0,1.077000022E0,1.355000019E0
9.583195529E0,1.164000034E0,2.746000051E0,-1.720000058E-1
9.588157453E0,5.929999948E-1,2.414000034E0,-1.822999954E0
9.593119620E0,-3.659999967E-1,1.004999995E0,-3.840000033E-1
9.598081774E0,-2.244999886E0,8.220000267E-1,-1.220999956E0
9.603043875E0,-2.496000051E0,1.399000049E0,-3.530999899E0
9.608006029E0,-4.020999908E0,6.439999938E-1,-2.792000055E0
9.612968183E0,-4.432000160E0,-3.840000033E-1,-1.317999959E0
9.617930082E0,-5.170000076E0,-5.659999847E-1,-2.102999926E0
9.622892236E0,-4.218999863E0,-1.769999981E0,-2.207999945E0
9.627854313E0,-5.446000099E0,-2.427000046E0,-1.493999958E0
9.632816453E0,-6.074999809E0,-2.186000109E0,-2.236999989E0
9.637778606E0,-4.949999809E0,-1.644999981E0,-2.546000004E0
9.642740755E0,-4.244999886E0,-1.786999941E0,-1.601999998E0
9.647702678E0,-3.509999990E0,-1.577999949E0,-8.799999952E-1
9.652664832E0,-3.038000107E0,-1.335000038E0,-2.820000052E-1
9.657626996E0,-2.332999945E0,-1.041000009E0,1.049000025E0
9.662589073E0,-1.424999952E0,5.379999876E-1,2.312000036E0
9.667551227E0,6.800000072E-1,-1.128999949E0,-8.650000095E-1
9.672513390E0,1.075999975E0,-5.159999728E-1,-5.019999743E-1
9.677475313E0,1.868999958E0,-6.700000167E-2,-7.229999900E-1
9.682437472E0,2.559000015E0,6.650000215E-1,-1.269000053E0
9.687399626E0,2.980000019E0,8.320000172E-1,-2.723999977E0
9.692361703E0,3.854000092E0,9.219999909E-1,-2.881000042E0
9.697323866E0,4.918000221E0,6.809999943E-1,-2.299999952E0
9.702285789E0,5.517000198E0,6.389999986E-1,-2.220000029E0
9.707247943E0,5.973999977E0,6.620000005E-1,-1.879999995E0
9.712210101E0,6.052000046E0,5.860000253E-1,-2.150000095E0
9.717172255E0,6.270999908E0,4.790000021E-1,-2.584000111E0
9.722134366E0,6.066999912E0,2.980000079E-1,-2.528000116E0
9.727096520E0,4.993999958E0,-4.899999872E-2,-2.200000048E0
9.732058674E0,4.168000221E0,2.099999934E-1,-1.504999995E0
9.737020611E0,2.618000031E0,5.730000138E-1,-1.082999945E0
9.741982765E0,1.373000026E0,8.859999776E-1,-9.070000052E-1
9.746944919E0,2.630000114E-1,8.190000057E-1,-6.079999804E-1
9.751906981E0,3.989999890E-1,9.419999719E-1,-2.419999987E-1
9.756869135E0,9.000000358E-2,9.120000005E-1,-3.249999881E-1
9.761831097E0,-1.739999950E-1,9.219999909E-1,-1.455999970E0
9.766793251E0,-1.099999994E-2,1.406999946E0,-2.056999922E0
9.771755405E0,1.180000007E-1,1.633999944E0,-2.342999935E0
9.776717502E0,-1.490000039E-1,1.072999954E0,-2.671000004E0
9.781679656E0,8.579999804E-1,1.590999961E0,-2.509000063E0
9.786641810E0,4.399999976E-1,1.024000049E0,-2.619999886E0
9.791603988E0,1.208999991E0,9.660000205E-1,-1.927000046E0
9.796565911E0,6.750000119E-1,9.530000091E-1,-2.012000084E0
9.801528050E0,2.240000069E-1,9.160000086E-1,-1.893000007E0
9.806490203E0,-6.589999795E-1,-2.000000095E-3,-1.488000035E0
9.811452280E0,-9.179999828E-1,-3.600000143E-1,-7.419999838E-1
9.816414429E0,-6.269999743E-1,-3.619999886E-1,-8.550000191E-1
9.821376352E0,-9.799999744E-2,-7.409999967E-1,-6.690000296E-1
9.826338506E0,8.489999771E-1,-5.849999785E-1,-1.588000059E0
9.831300670E0,4.550000131E-1,-2.619999945E-1,-2.151999950E0
9.836262747E0,-1.110000014E-1,-9.799999744E-2,-2.296000004E0
9.841224930E0,-1.016000032E0,-2.430000007E-1,-1.485999942E0
9.846187084E0,-1.634999990E0,2.099999972E-2,-1.319999993E-1
9.851149021E0,-2.459000111E0,2.800000086E-2,6.219999790E-1
9.856111175E0,-2.549999952E0,3.610000014E-1,1.050999999E0
9.861073328E0,-2.058000088E0,3.930000067E-1,7.580000162E-1
9.866035496E0,-8.320000172E-1,3.420000076E-1,7.120000124E-1
9.870997573E0,-8.989999890E-1,5.900000036E-2,1.414999962E0
9.875959747E0,-6.790000200E-1,-7.000000216E-3,1.600000024E0
9.880921670E0,2.099999972E-2,2.370000035E-1,1.909000039E0
9.885883824E0,4.269999862E-1,2.999999933E-2,2.734999895E0
9.890845992E0,7.269999981E-1,-2.070000023E-1,2.690000057E0
9.895808069E0,6.470000148E-1,-6.529999971E-1,2.414000034E0
9.900770223E0,1.251000047E0,-1.116000056E0,1.921000004E0
9.905732156E0,1.065999985E0,-7.929999828E-1,1.835999966E0
9.910694310E0,8.420000076E-1,-6.359999776E-1,1.521000028E0
9.915656387E0,2.300000004E-2,-6.169999838E-1,9.459999800E-1
9.920618607E0,3.479999900E-1,-8.299999684E-2,6.719999909E-1
9.925580684E0,-4.600000009E-2,-1.080000028E-1,5.070000291E-1
9.930542838E0,3.799999878E-2,1.110000014E-1,1.369999945E-1
9.935504751E0,5.630000234E-1,-1.860000044E-1,1.059999943E0
9.940466905E0,8.470000029E-1,-2.790000141E-1,8.130000234E-1
9.945428982E0,6.719999909E-1,-4.140000045E-1,6.050000191E-1
9.950391199E0,7.170000076E-1,-4.539999962E-1,8.069999814E-1
9.955353045E0,1.090999961E0,-3.849999905E-1,1.253999949E0
9.960315434E0,1.207999945E0,-5.230000019E-1,1.687000036E0
9.965277357E0,1.378000021E0,-3.779999912E-1,2.092999935E0
9.970239414E0,1.256999969E0,-2.639999986E-1,1.383000016E0
9.975201568E0,1.483999968E0,-4.999999888E-3,4.289999902E-1
9.980163721E0,1.514000058E0,-1.299999952E-1,-3.050000072E-1
9.985125635E0,9.010000229E-1,1.780000031E-1,-8.759999871E-1
9.990087789E0,2.619999945E-1,4.339999855E-1,-7.810000181E-1
9.995049943E0,1.420000046E-1,7.450000048E-1,-2.090000063E-1
1.000001209E1,1.589999944E-1,8.399999738E-1,-6.039999723E-1
1.000497417E1,6.399999857E-1,4.850000143E-1,-1.013000011E0
1.000993632E1,7.379999757E-1,2.960000038E-1,-1.108000040E0
1.001489824E1,3.339999914E-1,3.670000136E-1,-5.999999866E-2
1.001986040E1,-5.849999785E-1,6.290000081E-1,7.419999838E-1
1.002482254E1,-9.990000129E-1,1.027999997E0,1.258999944E0
1.002978461E1,-3.350000083E-1,1.029999971E0,1.789000034E0
1.003474676E1,3.140000105E-1,1.083999991E0,1.856999993E0
1.003970891E1,4.709999859E-1,6.710000038E-1,1.175999999E0
1.004467084E1,1.266000032E0,1.860000044E-1,6.039999723E-1
1.004963298E1,1.677000046E0,-1.220000014E-1,-2.240000069E-1
